"Time (s)","Gyroscope x (rad/s)","Gyroscope y (rad/s)","Gyroscope z (rad/s)"
3.837880300E-2,-3.817795368E-4,1.145338640E-3,1.145338640E-3
4.081489600E-2,2.290677221E-4,1.145338640E-3,-6.872031372E-4
4.325104200E-2,8.399150101E-4,1.145338640E-3,5.344913807E-4
4.568718800E-2,8.399150101E-4,5.344913807E-4,-6.872031372E-4
4.812328200E-2,8.399150101E-4,5.344913807E-4,1.145338640E-3
5.055942800E-2,8.399150101E-4,-1.298050396E-3,-7.635590737E-5
5.299552100E-2,1.450762269E-3,-7.635590737E-5,-6.872031372E-4
5.543166700E-2,-3.817795368E-4,-7.635590737E-5,5.344913807E-4
5.786781300E-2,-3.817795368E-4,5.344913807E-4,2.367033157E-3
6.030390700E-2,-9.926267667E-4,-6.872031372E-4,-1.298050396E-3
6.274005300E-2,-1.603474026E-3,-6.872031372E-4,-7.635590737E-5
6.517614600E-2,8.399150101E-4,5.344913807E-4,5.344913807E-4
6.761229200E-2,8.399150101E-4,5.344913807E-4,-7.635590737E-5
7.004843800E-2,1.450762269E-3,-7.635590737E-5,1.145338640E-3
7.248453200E-2,2.290677221E-4,-6.872031372E-4,1.145338640E-3
7.492067800E-2,2.290677221E-4,1.145338640E-3,-7.635590737E-5
7.735677100E-2,8.399150101E-4,-7.635590737E-5,1.145338640E-3
7.979291700E-2,8.399150101E-4,1.756185899E-3,-6.872031372E-4
8.222906300E-2,8.399150101E-4,1.145338640E-3,-1.298050396E-3
8.466515700E-2,-3.817795368E-4,-7.635590737E-5,-6.872031372E-4
8.710130300E-2,2.290677221E-4,-6.872031372E-4,5.344913807E-4
8.953739600E-2,2.290677221E-4,-7.635590737E-5,-7.635590737E-5
9.197354200E-2,-9.926267667E-4,5.344913807E-4,-7.635590737E-5
9.440963600E-2,-3.817795368E-4,-1.298050396E-3,-7.635590737E-5
9.684578200E-2,-2.214321401E-3,-3.130592173E-3,-6.872031372E-4
9.928192800E-2,-9.926267667E-4,-1.298050396E-3,-6.872031372E-4
1.017180210E-1,2.290677221E-4,5.344913807E-4,-1.298050396E-3
1.041541670E-1,2.290677221E-4,-6.872031372E-4,-7.635590737E-5
1.065902610E-1,1.450762269E-3,1.145338640E-3,5.344913807E-4
1.090264070E-1,8.399150101E-4,-6.872031372E-4,5.344913807E-4
1.114625530E-1,2.290677221E-4,-1.298050396E-3,-7.635590737E-5
1.138986460E-1,1.450762269E-3,1.145338640E-3,5.344913807E-4
1.163347920E-1,2.290677221E-4,5.344913807E-4,-7.635590737E-5
1.187709380E-1,-3.817795368E-4,1.145338640E-3,-6.872031372E-4
1.212070320E-1,-3.817795368E-4,5.344913807E-4,-1.298050396E-3
1.236431780E-1,-3.817795368E-4,-6.872031372E-4,5.344913807E-4
1.260792710E-1,-3.817795368E-4,-7.635590737E-5,-7.635590737E-5
1.285154170E-1,2.290677221E-4,-6.872031372E-4,5.344913807E-4
1.309515110E-1,2.290677221E-4,-7.635590737E-5,1.145338640E-3
1.333876570E-1,-3.817795368E-4,-7.635590737E-5,-7.635590737E-5
1.358238030E-1,2.290677221E-4,-6.872031372E-4,1.145338640E-3
1.382598960E-1,-1.603474026E-3,-7.635590737E-5,5.344913807E-4
1.406960420E-1,-3.817795368E-4,-1.298050396E-3,-7.635590737E-5
1.431321360E-1,8.399150101E-4,-6.872031372E-4,-7.635590737E-5
1.455682820E-1,2.290677221E-4,-6.872031372E-4,1.145338640E-3
1.480044280E-1,2.290677221E-4,1.145338640E-3,5.344913807E-4
1.504405210E-1,1.450762269E-3,1.145338640E-3,-1.298050396E-3
1.528766670E-1,2.290677221E-4,-7.635590737E-5,-1.298050396E-3
1.553127610E-1,-3.817795368E-4,5.344913807E-4,-7.635590737E-5
1.577489070E-1,2.290677221E-4,-7.635590737E-5,-7.635590737E-5
1.601850530E-1,2.290677221E-4,-7.635590737E-5,5.344913807E-4
1.626211460E-1,-3.817795368E-4,-7.635590737E-5,1.145338640E-3
1.650572920E-1,2.290677221E-4,-7.635590737E-5,1.145338640E-3
1.674933860E-1,2.290677221E-4,1.145338640E-3,-6.872031372E-4
1.699295320E-1,-1.603474026E-3,5.344913807E-4,-1.298050396E-3
1.723656780E-1,2.290677221E-4,-7.635590737E-5,-6.872031372E-4
1.748017710E-1,2.290677221E-4,5.344913807E-4,-1.298050396E-3
1.772379170E-1,-3.817795368E-4,-7.635590737E-5,5.344913807E-4
1.796740110E-1,-3.817795368E-4,5.344913807E-4,5.344913807E-4
1.821101570E-1,8.399150101E-4,-1.298050396E-3,5.344913807E-4
1.845463030E-1,-9.926267667E-4,-7.635590737E-5,-6.872031372E-4
1.869823960E-1,2.290677221E-4,5.344913807E-4,1.145338640E-3
1.894185420E-1,-9.926267667E-4,-1.298050396E-3,-6.872031372E-4
1.918546360E-1,-3.817795368E-4,5.344913807E-4,-6.872031372E-4
1.942907820E-1,-3.817795368E-4,-7.635590737E-5,-7.635590737E-5
1.967269280E-1,2.290677221E-4,1.145338640E-3,-1.298050396E-3
1.991630210E-1,-3.817795368E-4,-7.635590737E-5,-7.635590737E-5
2.015991670E-1,2.290677221E-4,1.145338640E-3,1.145338640E-3
2.040352610E-1,-3.817795368E-4,-7.635590737E-5,-1.298050396E-3
2.064714070E-1,2.290677221E-4,-7.635590737E-5,-7.635590737E-5
2.089075530E-1,-9.926267667E-4,5.344913807E-4,-7.635590737E-5
2.113436460E-1,8.399150101E-4,5.344913807E-4,-7.635590737E-5
2.137797920E-1,-9.926267667E-4,-7.635590737E-5,-7.635590737E-5
2.162158860E-1,-2.825168660E-3,-7.635590737E-5,1.145338640E-3
2.186520320E-1,8.399150101E-4,1.145338640E-3,-1.908897655E-3
2.210881260E-1,-9.926267667E-4,-7.635590737E-5,1.756185899E-3
2.235242710E-1,-3.817795368E-4,-6.872031372E-4,-6.872031372E-4
2.259604170E-1,2.290677221E-4,1.145338640E-3,1.756185899E-3
2.283965110E-1,2.290677221E-4,5.344913807E-4,5.344913807E-4
2.308326570E-1,1.450762269E-3,1.756185899E-3,-6.872031372E-4
2.332688030E-1,-3.817795368E-4,1.145338640E-3,-7.635590737E-5
2.357048960E-1,-3.817795368E-4,5.344913807E-4,-6.872031372E-4
2.381410420E-1,-3.817795368E-4,-7.635590737E-5,1.756185899E-3
2.405771360E-1,-9.926267667E-4,-7.635590737E-5,1.145338640E-3
2.430132820E-1,8.399150101E-4,-1.908897655E-3,-6.872031372E-4
2.454494280E-1,2.290677221E-4,5.344913807E-4,-7.635590737E-5
2.478855210E-1,8.399150101E-4,1.145338640E-3,-7.635590737E-5
2.503216670E-1,8.399150101E-4,-6.872031372E-4,5.344913807E-4
2.527577610E-1,-3.817795368E-4,5.344913807E-4,5.344913807E-4
2.551939070E-1,-3.817795368E-4,5.344913807E-4,-7.635590737E-5
2.576300530E-1,-3.817795368E-4,-7.635590737E-5,5.344913807E-4
2.600661460E-1,-3.817795368E-4,-6.872031372E-4,5.344913807E-4
2.625022920E-1,2.290677221E-4,-6.872031372E-4,5.344913807E-4
2.649383860E-1,-9.926267667E-4,1.145338640E-3,-7.635590737E-5
2.673745320E-1,2.061609412E-3,2.367033157E-3,-7.635590737E-5
2.698106260E-1,1.450762269E-3,5.344913807E-4,-6.872031372E-4
2.722467710E-1,2.290677221E-4,-6.872031372E-4,-6.872031372E-4
2.746829170E-1,-1.603474026E-3,-2.519744914E-3,5.344913807E-4
2.771190110E-1,2.290677221E-4,1.756185899E-3,5.344913807E-4
2.795551570E-1,8.399150101E-4,1.145338640E-3,-6.872031372E-4
2.819912510E-1,-3.817795368E-4,-1.298050396E-3,1.145338640E-3
2.844273960E-1,-3.817795368E-4,-3.130592173E-3,1.145338640E-3
2.868635420E-1,8.399150101E-4,-1.298050396E-3,-7.635590737E-5
2.892996360E-1,8.399150101E-4,1.145338640E-3,-6.872031372E-4
2.917357820E-1,-9.926267667E-4,-6.872031372E-4,-1.298050396E-3
2.941718760E-1,1.450762269E-3,-7.635590737E-5,-1.908897655E-3
2.966080210E-1,-9.926267667E-4,-6.872031372E-4,-6.872031372E-4
2.990441670E-1,2.290677221E-4,1.756185899E-3,-7.635590737E-5
3.014802610E-1,1.450762269E-3,2.977880416E-3,5.344913807E-4
3.039164070E-1,8.399150101E-4,2.367033157E-3,5.344913807E-4
3.063525010E-1,-9.926267667E-4,-1.298050396E-3,1.145338640E-3
3.087886460E-1,1.450762269E-3,1.145338640E-3,1.145338640E-3
3.112247920E-1,8.399150101E-4,-7.635590737E-5,-7.635590737E-5
3.136608860E-1,-3.817795368E-4,5.344913807E-4,-7.635590737E-5
3.160970320E-1,-1.603474026E-3,-2.519744914E-3,-6.872031372E-4
3.185331260E-1,-3.817795368E-4,-7.635590737E-5,-1.298050396E-3
3.209692710E-1,8.399150101E-4,1.145338640E-3,-7.635590737E-5
3.234054170E-1,1.450762269E-3,1.756185899E-3,-7.635590737E-5
3.258415110E-1,-1.603474026E-3,-7.635590737E-5,-7.635590737E-5
3.282776570E-1,2.290677221E-4,-7.635590737E-5,-6.872031372E-4
3.307137510E-1,-3.817795368E-4,1.145338640E-3,-7.635590737E-5
3.331498960E-1,2.290677221E-4,-6.872031372E-4,1.145338640E-3
3.355860420E-1,2.290677221E-4,5.344913807E-4,-7.635590737E-5
3.380221360E-1,-3.817795368E-4,-7.635590737E-5,5.344913807E-4
3.404582820E-1,8.399150101E-4,5.344913807E-4,1.756185899E-3
3.428943760E-1,2.290677221E-4,-6.872031372E-4,-6.872031372E-4
3.453305210E-1,8.399150101E-4,-6.872031372E-4,-1.298050396E-3
3.477666150E-1,-9.926267667E-4,-7.635590737E-5,-6.872031372E-4
3.502027610E-1,-2.825168660E-3,-4.352286924E-3,5.344913807E-4
3.526389070E-1,2.290677221E-4,-1.298050396E-3,-1.298050396E-3
3.550750010E-1,8.399150101E-4,-7.635590737E-5,-7.635590737E-5
3.575111460E-1,1.450762269E-3,5.344913807E-4,5.344913807E-4
3.599472400E-1,2.290677221E-4,-7.635590737E-5,5.344913807E-4
3.623833860E-1,2.290677221E-4,5.344913807E-4,-6.872031372E-4
3.648195320E-1,-3.817795368E-4,5.344913807E-4,1.756185899E-3
3.672556260E-1,8.399150101E-4,3.588727675E-3,-7.635590737E-5
3.696917710E-1,1.450762269E-3,5.344913807E-4,-6.872031372E-4
3.721278650E-1,8.399150101E-4,2.367033157E-3,-1.908897655E-3
3.745640110E-1,8.399150101E-4,5.344913807E-4,5.344913807E-4
3.770001570E-1,-3.817795368E-4,5.344913807E-4,-6.872031372E-4
3.794362510E-1,2.290677221E-4,1.756185899E-3,-7.635590737E-5
3.818723960E-1,8.399150101E-4,-7.635590737E-5,-7.635590737E-5
3.843084900E-1,8.399150101E-4,5.344913807E-4,5.344913807E-4
3.867446360E-1,2.061609412E-3,2.977880416E-3,-6.872031372E-4
3.891807300E-1,-9.926267667E-4,-1.298050396E-3,-7.635590737E-5
3.916168760E-1,-1.603474026E-3,-6.872031372E-4,5.344913807E-4
3.940530210E-1,-3.817795368E-4,5.344913807E-4,-6.872031372E-4
3.964891150E-1,2.290677221E-4,-7.635590737E-5,-6.872031372E-4
3.989252610E-1,-3.817795368E-4,-6.872031372E-4,5.344913807E-4
4.013614070E-1,-9.926267667E-4,-1.298050396E-3,1.145338640E-3
4.037975010E-1,-2.214321401E-3,-1.908897655E-3,5.344913807E-4
4.062336460E-1,-3.817795368E-4,-7.635590737E-5,-7.635590737E-5
4.086697400E-1,1.450762269E-3,1.145338640E-3,-7.635590737E-5
4.111058860E-1,1.450762269E-3,1.756185899E-3,-6.872031372E-4
4.135420320E-1,2.290677221E-4,1.756185899E-3,5.344913807E-4
4.159781260E-1,-3.817795368E-4,-6.872031372E-4,-7.635590737E-5
4.184142710E-1,-9.926267667E-4,-6.872031372E-4,-1.298050396E-3
4.208503650E-1,1.450762269E-3,5.344913807E-4,-6.872031372E-4
4.232865110E-1,8.399150101E-4,1.756185899E-3,-7.635590737E-5
4.257226570E-1,8.399150101E-4,2.367033157E-3,5.344913807E-4
4.281587510E-1,2.290677221E-4,5.344913807E-4,5.344913807E-4
4.305948960E-1,2.290677221E-4,5.344913807E-4,1.145338640E-3
4.330309900E-1,2.290677221E-4,2.367033157E-3,5.344913807E-4
4.354671360E-1,-1.603474026E-3,-1.298050396E-3,5.344913807E-4
4.379032820E-1,2.290677221E-4,5.344913807E-4,-7.635590737E-5
4.403393760E-1,2.290677221E-4,1.145338640E-3,5.344913807E-4
4.427755210E-1,8.399150101E-4,5.344913807E-4,5.344913807E-4
4.452116150E-1,1.450762269E-3,1.145338640E-3,-6.872031372E-4
4.476477610E-1,2.290677221E-4,-7.635590737E-5,-7.635590737E-5
4.500838550E-1,-3.817795368E-4,-7.635590737E-5,-7.635590737E-5
4.525200010E-1,-9.926267667E-4,-1.298050396E-3,1.145338640E-3
4.549561460E-1,-3.817795368E-4,-1.298050396E-3,-7.635590737E-5
4.573922400E-1,-3.817795368E-4,5.344913807E-4,1.145338640E-3
4.598283860E-1,2.290677221E-4,-7.635590737E-5,-6.872031372E-4
4.622644800E-1,-1.603474026E-3,-6.872031372E-4,5.344913807E-4
4.647006260E-1,-9.926267667E-4,5.344913807E-4,5.344913807E-4
4.671367710E-1,-3.817795368E-4,1.145338640E-3,1.145338640E-3
4.695728650E-1,-3.817795368E-4,-1.298050396E-3,-7.635590737E-5
4.720090110E-1,8.399150101E-4,-7.635590737E-5,1.756185899E-3
4.744451050E-1,2.290677221E-4,-7.635590737E-5,-7.635590737E-5
4.768812510E-1,1.450762269E-3,5.344913807E-4,1.145338640E-3
4.793173440E-1,1.450762269E-3,1.145338640E-3,-1.298050396E-3
4.817534900E-1,2.290677221E-4,-6.872031372E-4,5.344913807E-4
4.841896360E-1,8.399150101E-4,5.344913807E-4,-6.872031372E-4
4.866257300E-1,-9.926267667E-4,-1.908897655E-3,-6.872031372E-4
4.890618760E-1,2.290677221E-4,-7.635590737E-5,-6.872031372E-4
4.914980210E-1,2.290677221E-4,-7.635590737E-5,5.344913807E-4
4.939341150E-1,-1.603474026E-3,5.344913807E-4,-6.872031372E-4
4.963702610E-1,-3.817795368E-4,2.367033157E-3,-7.635590737E-5
4.988063550E-1,2.290677221E-4,1.145338640E-3,-6.872031372E-4
5.012425010E-1,2.290677221E-4,-1.298050396E-3,-1.298050396E-3
5.036786460E-1,1.450762269E-3,1.145338640E-3,-1.298050396E-3
5.061147400E-1,2.290677221E-4,-7.635590737E-5,-6.872031372E-4
5.085508860E-1,2.290677221E-4,-1.298050396E-3,-7.635590737E-5
5.109869800E-1,8.399150101E-4,-6.872031372E-4,-6.872031372E-4
5.134231260E-1,2.290677221E-4,5.344913807E-4,-7.635590737E-5
5.158592190E-1,-3.817795368E-4,5.344913807E-4,-7.635590737E-5
5.182953650E-1,-3.817795368E-4,5.344913807E-4,-7.635590737E-5
5.207315110E-1,1.450762269E-3,1.756185899E-3,-6.872031372E-4
5.231676050E-1,-3.817795368E-4,-1.298050396E-3,5.344913807E-4
5.256037510E-1,2.061609412E-3,-6.872031372E-4,1.145338640E-3
5.280398440E-1,8.399150101E-4,-7.635590737E-5,-7.635590737E-5
5.304759900E-1,8.399150101E-4,5.344913807E-4,-6.872031372E-4
5.329121360E-1,2.290677221E-4,-6.872031372E-4,-7.635590737E-5
5.353482300E-1,8.399150101E-4,-7.635590737E-5,-7.635590737E-5
5.377843760E-1,-3.817795368E-4,-1.298050396E-3,-1.298050396E-3
5.402204690E-1,-9.926267667E-4,-1.908897655E-3,-6.872031372E-4
5.426566150E-1,1.450762269E-3,5.344913807E-4,-6.872031372E-4
5.450927090E-1,2.290677221E-4,-7.635590737E-5,5.344913807E-4
5.475288550E-1,-9.926267667E-4,-6.872031372E-4,-7.635590737E-5
5.499650010E-1,8.399150101E-4,-7.635590737E-5,-1.908897655E-3
5.524010940E-1,-3.817795368E-4,-1.908897655E-3,-7.635590737E-5
5.548372400E-1,8.399150101E-4,1.145338640E-3,1.756185899E-3
5.572733860E-1,-3.817795368E-4,-2.519744914E-3,-6.872031372E-4
5.597094800E-1,-3.817795368E-4,-7.635590737E-5,-7.635590737E-5
5.621456260E-1,-3.817795368E-4,-1.298050396E-3,-7.635590737E-5
5.645817190E-1,2.290677221E-4,-6.872031372E-4,5.344913807E-4
5.670178650E-1,2.290677221E-4,1.145338640E-3,5.344913807E-4
5.694539590E-1,-9.926267667E-4,-6.872031372E-4,5.344913807E-4
5.718901050E-1,-3.817795368E-4,-7.635590737E-5,-7.635590737E-5
5.743262510E-1,-3.817795368E-4,-6.872031372E-4,1.145338640E-3
5.767623440E-1,1.450762269E-3,-7.635590737E-5,5.344913807E-4
5.791984900E-1,8.399150101E-4,1.145338640E-3,5.344913807E-4
5.816345840E-1,2.290677221E-4,-7.635590737E-5,-6.872031372E-4
5.840707300E-1,2.290677221E-4,5.344913807E-4,-7.635590737E-5
5.865068760E-1,2.061609412E-3,1.145338640E-3,-7.635590737E-5
5.889429690E-1,2.290677221E-4,-1.298050396E-3,-6.872031372E-4
5.913791150E-1,-9.926267667E-4,-1.908897655E-3,-6.872031372E-4
5.938152090E-1,2.290677221E-4,-7.635590737E-5,5.344913807E-4
5.962513550E-1,2.290677221E-4,2.977880416E-3,5.344913807E-4
5.986875010E-1,2.290677221E-4,5.344913807E-4,-7.635590737E-5
6.011235940E-1,2.290677221E-4,1.756185899E-3,-6.872031372E-4
6.035597400E-1,-3.817795368E-4,-6.872031372E-4,-7.635590737E-5
6.059958340E-1,8.399150101E-4,-7.635590737E-5,-7.635590737E-5
6.084319800E-1,2.290677221E-4,-7.635590737E-5,-7.635590737E-5
6.108680730E-1,8.399150101E-4,5.344913807E-4,5.344913807E-4
6.133042190E-1,-3.817795368E-4,-1.298050396E-3,-6.872031372E-4
6.157403650E-1,-3.817795368E-4,-7.635590737E-5,-6.872031372E-4
6.181764590E-1,2.290677221E-4,-7.635590737E-5,-1.298050396E-3
6.206126050E-1,2.290677221E-4,-7.635590737E-5,5.344913807E-4
6.230486980E-1,1.450762269E-3,2.367033157E-3,-1.298050396E-3
6.254848440E-1,-9.926267667E-4,-1.298050396E-3,5.344913807E-4
6.279209900E-1,1.450762269E-3,5.344913807E-4,-6.872031372E-4
6.303570840E-1,2.290677221E-4,1.756185899E-3,1.145338640E-3
6.327932300E-1,2.061609412E-3,-7.635590737E-5,-7.635590737E-5
6.352293230E-1,-3.817795368E-4,-7.635590737E-5,-6.872031372E-4
6.376654690E-1,-9.926267667E-4,1.756185899E-3,-7.635590737E-5
6.401016150E-1,1.450762269E-3,1.145338640E-3,-7.635590737E-5
6.425377090E-1,8.399150101E-4,-1.908897655E-3,5.344913807E-4
6.449738550E-1,-3.817795368E-4,-6.872031372E-4,-6.872031372E-4
6.474099480E-1,2.290677221E-4,5.344913807E-4,-1.298050396E-3
6.498460940E-1,-9.926267667E-4,5.344913807E-4,-7.635590737E-5
6.522822400E-1,-3.817795368E-4,5.344913807E-4,-1.298050396E-3
6.547183340E-1,-3.817795368E-4,1.145338640E-3,-7.635590737E-5
6.571544800E-1,-9.926267667E-4,-6.872031372E-4,-7.635590737E-5
6.595905730E-1,2.061609412E-3,5.344913807E-4,-6.872031372E-4
6.620267190E-1,-3.817795368E-4,-7.635590737E-5,5.344913807E-4
6.644628130E-1,2.290677221E-4,-7.635590737E-5,-7.635590737E-5
6.668989590E-1,-3.817795368E-4,-7.635590737E-5,-7.635590737E-5
6.693351050E-1,-3.817795368E-4,-6.872031372E-4,-1.908897655E-3
6.717711980E-1,8.399150101E-4,5.344913807E-4,-6.872031372E-4
6.742073440E-1,8.399150101E-4,2.367033157E-3,-6.872031372E-4
6.766434380E-1,2.290677221E-4,5.344913807E-4,1.145338640E-3
6.790795840E-1,-3.817795368E-4,1.145338640E-3,5.344913807E-4
6.815157300E-1,-9.926267667E-4,-6.872031372E-4,5.344913807E-4
6.839518230E-1,8.399150101E-4,5.344913807E-4,5.344913807E-4
6.863879690E-1,-3.817795368E-4,-7.635590737E-5,-7.635590737E-5
6.888240630E-1,-3.817795368E-4,-6.872031372E-4,-7.635590737E-5
6.912602090E-1,-3.817795368E-4,1.756185899E-3,5.344913807E-4
6.936963550E-1,-3.817795368E-4,-7.635590737E-5,-7.635590737E-5
6.961324480E-1,8.399150101E-4,5.344913807E-4,5.344913807E-4
6.985685940E-1,-9.926267667E-4,-7.635590737E-5,1.145338640E-3
7.010046880E-1,8.399150101E-4,-7.635590737E-5,5.344913807E-4
7.034408340E-1,1.450762269E-3,1.145338640E-3,1.145338640E-3
7.058769800E-1,-9.926267667E-4,5.344913807E-4,-6.872031372E-4
7.083130730E-1,8.399150101E-4,-7.635590737E-5,-7.635590737E-5
7.107492190E-1,1.450762269E-3,1.145338640E-3,5.344913807E-4
7.131853130E-1,-3.817795368E-4,-2.519744914E-3,5.344913807E-4
7.156214590E-1,2.061609412E-3,1.145338640E-3,-6.872031372E-4
7.180575530E-1,8.399150101E-4,5.344913807E-4,-1.298050396E-3
7.204936980E-1,8.399150101E-4,-7.635590737E-5,-6.872031372E-4
7.229298440E-1,8.399150101E-4,5.344913807E-4,-6.872031372E-4
7.253659380E-1,8.399150101E-4,1.145338640E-3,-7.635590737E-5
7.278020840E-1,2.290677221E-4,1.756185899E-3,-6.872031372E-4
7.302381780E-1,-2.214321401E-3,-1.908897655E-3,-1.908897655E-3
7.326743230E-1,-2.214321401E-3,-6.872031372E-4,1.145338640E-3
7.351104690E-1,-2.825168660E-3,-3.130592173E-3,1.756185899E-3
7.375465630E-1,-2.825168660E-3,-4.963133950E-3,-7.635590737E-5
7.399827090E-1,-9.926267667E-4,5.344913807E-4,-6.872031372E-4
7.424188030E-1,-9.926267667E-4,-7.635590737E-5,-1.298050396E-3
7.448549480E-1,2.290677221E-4,-7.635590737E-5,5.344913807E-4
7.472910940E-1,2.290677221E-4,-7.635590737E-5,-7.635590737E-5
7.497271880E-1,-1.603474026E-3,-1.298050396E-3,5.344913807E-4
7.521633340E-1,-9.926267667E-4,-1.298050396E-3,-1.298050396E-3
7.545994280E-1,8.399150101E-4,1.145338640E-3,-7.635590737E-5
7.570355730E-1,8.399150101E-4,-6.872031372E-4,-1.298050396E-3
7.594716670E-1,-3.817795368E-4,-7.635590737E-5,-6.872031372E-4
7.619078130E-1,-3.817795368E-4,1.756185899E-3,-6.872031372E-4
7.643439590E-1,1.450762269E-3,2.367033157E-3,-7.635590737E-5
7.667800530E-1,1.450762269E-3,1.145338640E-3,-6.872031372E-4
7.692161980E-1,-3.817795368E-4,5.344913807E-4,-7.635590737E-5
7.716522920E-1,8.399150101E-4,2.367033157E-3,-1.298050396E-3
7.740884380E-1,-3.817795368E-4,5.344913807E-4,5.344913807E-4
7.765245840E-1,8.399150101E-4,5.344913807E-4,-1.908897655E-3
7.789606780E-1,8.399150101E-4,5.344913807E-4,-6.872031372E-4
7.813968230E-1,-9.926267667E-4,1.756185899E-3,1.145338640E-3
7.838329170E-1,-9.926267667E-4,1.145338640E-3,1.756185899E-3
7.862690630E-1,2.290677221E-4,5.344913807E-4,5.344913807E-4
7.887051570E-1,8.399150101E-4,5.344913807E-4,-1.298050396E-3
7.911413030E-1,1.450762269E-3,1.145338640E-3,-7.635590737E-5
7.935774480E-1,2.061609412E-3,5.344913807E-4,-7.635590737E-5
7.960135420E-1,1.450762269E-3,-7.635590737E-5,-6.872031372E-4
7.984496880E-1,8.399150101E-4,1.756185899E-3,-6.872031372E-4
8.008857820E-1,-3.817795368E-4,-7.635590737E-5,-6.872031372E-4
8.033219280E-1,2.290677221E-4,-1.298050396E-3,-6.872031372E-4
8.057580730E-1,2.061609412E-3,-6.872031372E-4,-7.635590737E-5
8.081941670E-1,2.672456671E-3,5.344913807E-4,-7.635590737E-5
8.106303130E-1,-9.926267667E-4,-1.298050396E-3,5.344913807E-4
8.130664070E-1,-3.817795368E-4,-7.635590737E-5,-7.635590737E-5
8.155025530E-1,8.399150101E-4,1.756185899E-3,-7.635590737E-5
8.179386980E-1,-3.817795368E-4,-1.908897655E-3,1.145338640E-3
8.203747920E-1,2.290677221E-4,-1.298050396E-3,1.756185899E-3
8.228109380E-1,-9.926267667E-4,-6.872031372E-4,-6.872031372E-4
8.252470320E-1,8.399150101E-4,1.756185899E-3,5.344913807E-4
8.276831780E-1,-3.817795368E-4,-6.872031372E-4,1.145338640E-3
8.301192710E-1,-1.603474026E-3,-2.519744914E-3,-1.298050396E-3
8.325554170E-1,-3.817795368E-4,5.344913807E-4,-6.872031372E-4
8.349915630E-1,2.290677221E-4,1.145338640E-3,-6.872031372E-4
8.374276570E-1,-3.817795368E-4,-6.872031372E-4,-7.635590737E-5
8.398638030E-1,-3.817795368E-4,-2.519744914E-3,5.344913807E-4
8.422998960E-1,2.290677221E-4,-1.298050396E-3,-6.872031372E-4
8.447360420E-1,8.399150101E-4,5.344913807E-4,5.344913807E-4
8.471721880E-1,-3.817795368E-4,-1.298050396E-3,5.344913807E-4
8.496082820E-1,-1.603474026E-3,-1.908897655E-3,-7.635590737E-5
8.520444280E-1,-9.926267667E-4,-7.635590737E-5,-6.872031372E-4
8.544805210E-1,-3.817795368E-4,1.145338640E-3,-1.298050396E-3
8.569166670E-1,2.290677221E-4,-7.635590737E-5,-6.872031372E-4
8.593528130E-1,-3.817795368E-4,-1.298050396E-3,5.344913807E-4
8.617889070E-1,-3.817795368E-4,-1.298050396E-3,-7.635590737E-5
8.642250530E-1,-3.817795368E-4,-6.872031372E-4,-7.635590737E-5
8.666611460E-1,2.061609412E-3,5.344913807E-4,-7.635590737E-5
8.690972920E-1,1.450762269E-3,1.756185899E-3,5.344913807E-4
8.715333860E-1,2.290677221E-4,-7.635590737E-5,-7.635590737E-5
8.739695320E-1,-3.817795368E-4,5.344913807E-4,-1.298050396E-3
8.764056780E-1,2.290677221E-4,-1.298050396E-3,-6.872031372E-4
8.788417710E-1,1.450762269E-3,5.344913807E-4,-1.298050396E-3
8.812779170E-1,8.399150101E-4,5.344913807E-4,5.344913807E-4
8.837140110E-1,1.450762269E-3,5.344913807E-4,-7.635590737E-5
8.861501570E-1,-9.926267667E-4,-7.635590737E-5,-7.635590737E-5
8.885863030E-1,2.290677221E-4,-7.635590737E-5,5.344913807E-4
8.910223960E-1,2.290677221E-4,-6.872031372E-4,1.756185899E-3
8.934585420E-1,2.290677221E-4,-7.635590737E-5,-1.298050396E-3
8.958946360E-1,-3.817795368E-4,-6.872031372E-4,-6.872031372E-4
8.983307820E-1,-3.817795368E-4,1.756185899E-3,-6.872031372E-4
9.007669280E-1,-3.817795368E-4,5.344913807E-4,5.344913807E-4
9.032030210E-1,2.290677221E-4,-6.872031372E-4,1.145338640E-3
9.056391670E-1,-9.926267667E-4,-7.635590737E-5,-7.635590737E-5
9.080752610E-1,-3.817795368E-4,-7.635590737E-5,-1.298050396E-3
9.105114070E-1,-9.926267667E-4,-1.908897655E-3,-7.635590737E-5
9.129475010E-1,-3.817795368E-4,-6.872031372E-4,-7.635590737E-5
9.153836460E-1,2.290677221E-4,2.367033157E-3,-7.635590737E-5
9.178197920E-1,-9.926267667E-4,-7.635590737E-5,-1.298050396E-3
9.202558860E-1,-3.817795368E-4,-1.298050396E-3,5.344913807E-4
9.226920320E-1,-3.817795368E-4,-7.635590737E-5,5.344913807E-4
9.251281260E-1,-3.817795368E-4,1.145338640E-3,-2.519744914E-3
9.275642710E-1,-3.817795368E-4,-1.908897655E-3,-7.635590737E-5
9.300003650E-1,-9.926267667E-4,-1.908897655E-3,-6.872031372E-4
9.324365110E-1,2.290677221E-4,1.756185899E-3,1.145338640E-3
9.348726570E-1,8.399150101E-4,1.756185899E-3,-6.872031372E-4
9.373087510E-1,-3.817795368E-4,1.145338640E-3,-7.635590737E-5
9.397448960E-1,-9.926267667E-4,-1.298050396E-3,-7.635590737E-5
9.421810420E-1,-9.926267667E-4,-1.298050396E-3,1.145338640E-3
9.446171360E-1,2.290677221E-4,1.145338640E-3,5.344913807E-4
9.470532820E-1,-9.926267667E-4,-6.872031372E-4,-7.635590737E-5
9.494893760E-1,2.290677221E-4,1.756185899E-3,5.344913807E-4
9.519255210E-1,2.061609412E-3,2.367033157E-3,-7.635590737E-5
9.543616150E-1,8.399150101E-4,1.145338640E-3,-6.872031372E-4
9.567977610E-1,2.290677221E-4,-6.872031372E-4,1.756185899E-3
9.592339070E-1,2.290677221E-4,1.145338640E-3,-7.635590737E-5
9.616700010E-1,-3.817795368E-4,-1.908897655E-3,-6.872031372E-4
9.641061460E-1,-3.817795368E-4,-7.635590737E-5,-7.635590737E-5
9.665422400E-1,8.399150101E-4,1.145338640E-3,-7.635590737E-5
9.689783860E-1,-9.926267667E-4,-7.635590737E-5,5.344913807E-4
9.714144800E-1,2.290677221E-4,5.344913807E-4,-1.298050396E-3
9.738506260E-1,-3.817795368E-4,5.344913807E-4,5.344913807E-4
9.762867710E-1,-9.926267667E-4,-1.908897655E-3,-7.635590737E-5
9.787228650E-1,2.290677221E-4,-7.635590737E-5,1.756185899E-3
9.811590110E-1,2.061609412E-3,1.756185899E-3,1.756185899E-3
9.835951050E-1,2.061609412E-3,1.145338640E-3,1.756185899E-3
9.860312510E-1,2.290677221E-4,-7.635590737E-5,5.344913807E-4
9.884673960E-1,-3.817795368E-4,-6.872031372E-4,-6.872031372E-4
9.909034900E-1,2.290677221E-4,-7.635590737E-5,-1.908897655E-3
9.933396360E-1,-9.926267667E-4,-7.635590737E-5,-1.298050396E-3
9.957757300E-1,2.290677221E-4,5.344913807E-4,-1.298050396E-3
9.982118760E-1,2.290677221E-4,1.756185899E-3,-1.908897655E-3
1.000648021E0,-9.926267667E-4,-1.298050396E-3,-7.635590737E-5
1.003084115E0,8.399150101E-4,-6.872031372E-4,5.344913807E-4
1.005520261E0,-1.603474026E-3,-1.908897655E-3,5.344913807E-4
1.007956355E0,2.290677221E-4,-7.635590737E-5,1.145338640E-3
1.010392501E0,1.450762269E-3,1.756185899E-3,1.756185899E-3
1.012828646E0,-3.817795368E-4,-1.908897655E-3,-7.635590737E-5
1.015264740E0,-1.603474026E-3,-6.872031372E-4,-6.872031372E-4
1.017700886E0,8.399150101E-4,1.145338640E-3,-7.635590737E-5
1.020136980E0,8.399150101E-4,-7.635590737E-5,5.344913807E-4
1.022573126E0,2.290677221E-4,-6.872031372E-4,-7.635590737E-5
1.025009219E0,2.290677221E-4,5.344913807E-4,-7.635590737E-5
1.027445365E0,2.290677221E-4,-6.872031372E-4,-6.872031372E-4
1.029881459E0,8.399150101E-4,5.344913807E-4,-6.872031372E-4
1.032317605E0,2.290677221E-4,-7.635590737E-5,5.344913807E-4
1.034753751E0,-3.817795368E-4,1.145338640E-3,1.145338640E-3
1.037189844E0,-2.214321401E-3,-1.298050396E-3,5.344913807E-4
1.039625990E0,-3.817795368E-4,5.344913807E-4,5.344913807E-4
1.042062136E0,-3.817795368E-4,-1.298050396E-3,-1.298050396E-3
1.044498230E0,2.290677221E-4,-6.872031372E-4,-6.872031372E-4
1.046934376E0,-3.817795368E-4,-6.872031372E-4,-7.635590737E-5
1.049370469E0,2.290677221E-4,-7.635590737E-5,5.344913807E-4
1.051806615E0,2.290677221E-4,5.344913807E-4,5.344913807E-4
1.054242709E0,2.290677221E-4,1.145338640E-3,-7.635590737E-5
1.056678855E0,-1.603474026E-3,-6.872031372E-4,-7.635590737E-5
1.059115001E0,-3.817795368E-4,5.344913807E-4,-7.635590737E-5
1.061551094E0,-3.817795368E-4,-7.635590737E-5,5.344913807E-4
1.063987240E0,2.290677221E-4,-7.635590737E-5,-6.872031372E-4
1.066423334E0,8.399150101E-4,5.344913807E-4,-7.635590737E-5
1.068859480E0,2.290677221E-4,2.977880416E-3,-7.635590737E-5
1.071295573E0,8.399150101E-4,1.145338640E-3,5.344913807E-4
1.073731719E0,1.450762269E-3,5.344913807E-4,-7.635590737E-5
1.076167865E0,8.399150101E-4,-7.635590737E-5,1.145338640E-3
1.078603959E0,2.672456671E-3,2.977880416E-3,-1.298050396E-3
1.081040105E0,-9.926267667E-4,5.344913807E-4,1.145338640E-3
1.083476198E0,2.290677221E-4,5.344913807E-4,-6.872031372E-4
1.085912344E0,8.399150101E-4,1.145338640E-3,-7.635590737E-5
1.088348490E0,-3.817795368E-4,-6.872031372E-4,-6.872031372E-4
1.090784584E0,8.399150101E-4,-6.872031372E-4,-7.635590737E-5
1.093220730E0,8.399150101E-4,-6.872031372E-4,-6.872031372E-4
1.095656823E0,8.399150101E-4,5.344913807E-4,1.145338640E-3
1.098092969E0,2.290677221E-4,1.756185899E-3,-6.872031372E-4
1.100529115E0,2.061609412E-3,2.367033157E-3,-7.635590737E-5
1.102965209E0,1.450762269E-3,1.756185899E-3,-7.635590737E-5
1.105401355E0,-9.926267667E-4,5.344913807E-4,-7.635590737E-5
1.107837448E0,-1.603474026E-3,5.344913807E-4,-7.635590737E-5
1.110273594E0,-9.926267667E-4,-6.872031372E-4,-7.635590737E-5
1.112709688E0,-9.926267667E-4,-2.519744914E-3,-6.872031372E-4
1.115145834E0,-3.817795368E-4,-1.298050396E-3,5.344913807E-4
1.117581980E0,-3.817795368E-4,-7.635590737E-5,-6.872031372E-4
1.120018073E0,-1.603474026E-3,-1.908897655E-3,5.344913807E-4
1.122454219E0,-3.817795368E-4,1.145338640E-3,5.344913807E-4
1.124890313E0,8.399150101E-4,-6.872031372E-4,-1.298050396E-3
1.127326459E0,1.450762269E-3,1.756185899E-3,-7.635590737E-5
1.129762605E0,-9.926267667E-4,-6.872031372E-4,-7.635590737E-5
1.132198698E0,-3.817795368E-4,-6.872031372E-4,-6.872031372E-4
1.134634844E0,1.450762269E-3,1.756185899E-3,-6.872031372E-4
1.137070938E0,-3.817795368E-4,-7.635590737E-5,-1.298050396E-3
1.139507084E0,-3.817795368E-4,-6.872031372E-4,5.344913807E-4
1.141943178E0,-3.817795368E-4,5.344913807E-4,5.344913807E-4
1.144379323E0,-3.817795368E-4,-6.872031372E-4,1.756185899E-3
1.146815469E0,-3.817795368E-4,1.145338640E-3,-7.635590737E-5
1.149251563E0,2.061609412E-3,5.344913807E-4,-6.872031372E-4
1.151687709E0,-9.926267667E-4,-6.872031372E-4,-7.635590737E-5
1.154123803E0,8.399150101E-4,5.344913807E-4,-6.872031372E-4
1.156559948E0,-3.817795368E-4,-7.635590737E-5,1.145338640E-3
1.158996094E0,2.290677221E-4,5.344913807E-4,5.344913807E-4
1.161432188E0,-3.817795368E-4,-1.908897655E-3,5.344913807E-4
1.163868334E0,-1.603474026E-3,-1.298050396E-3,-7.635590737E-5
1.166304428E0,2.290677221E-4,2.367033157E-3,-7.635590737E-5
1.168740573E0,2.290677221E-4,5.344913807E-4,-1.298050396E-3
1.171176667E0,-3.817795368E-4,5.344913807E-4,-7.635590737E-5
1.173612813E0,2.290677221E-4,5.344913807E-4,-6.872031372E-4
1.176048959E0,2.290677221E-4,5.344913807E-4,-6.872031372E-4
1.178485053E0,8.399150101E-4,1.145338640E-3,-6.872031372E-4
1.180921198E0,8.399150101E-4,5.344913807E-4,-1.298050396E-3
1.183357292E0,8.399150101E-4,5.344913807E-4,-2.519744914E-3
1.185793438E0,1.450762269E-3,1.145338640E-3,5.344913807E-4
1.188229584E0,2.290677221E-4,-7.635590737E-5,-7.635590737E-5
1.190665678E0,2.290677221E-4,5.344913807E-4,-7.635590737E-5
1.193101823E0,1.450762269E-3,-7.635590737E-5,-1.298050396E-3
1.195537917E0,8.399150101E-4,5.344913807E-4,-6.872031372E-4
1.197974063E0,2.290677221E-4,-6.872031372E-4,-6.872031372E-4
1.200410157E0,-3.817795368E-4,-1.908897655E-3,-6.872031372E-4
1.202846303E0,-9.926267667E-4,-6.872031372E-4,5.344913807E-4
1.205282448E0,2.290677221E-4,1.756185899E-3,-7.635590737E-5
1.207718542E0,8.399150101E-4,-1.298050396E-3,-7.635590737E-5
1.210154688E0,-3.817795368E-4,2.367033157E-3,5.344913807E-4
1.212590782E0,-1.603474026E-3,1.756185899E-3,-7.635590737E-5
1.215026928E0,2.290677221E-4,1.145338640E-3,-6.872031372E-4
1.217463073E0,1.450762269E-3,1.145338640E-3,-1.298050396E-3
1.219899167E0,2.290677221E-4,-1.298050396E-3,-7.635590737E-5
1.222335313E0,-9.926267667E-4,-1.908897655E-3,-7.635590737E-5
1.224771407E0,-3.817795368E-4,-6.872031372E-4,-6.872031372E-4
1.227207553E0,-3.817795368E-4,5.344913807E-4,1.756185899E-3
1.229643698E0,-3.817795368E-4,1.145338640E-3,5.344913807E-4
1.232079792E0,8.399150101E-4,1.145338640E-3,-7.635590737E-5
1.234515938E0,2.290677221E-4,-7.635590737E-5,5.344913807E-4
1.236952032E0,-1.603474026E-3,-3.130592173E-3,-7.635590737E-5
1.239388178E0,2.290677221E-4,5.344913807E-4,5.344913807E-4
1.241824271E0,-3.817795368E-4,-7.635590737E-5,5.344913807E-4
1.244260417E0,-3.817795368E-4,5.344913807E-4,-7.635590737E-5
1.246696563E0,-3.817795368E-4,-1.298050396E-3,-6.872031372E-4
1.249132657E0,-9.926267667E-4,5.344913807E-4,1.756185899E-3
1.251568803E0,1.450762269E-3,2.367033157E-3,1.756185899E-3
1.254004896E0,-9.926267667E-4,-7.635590737E-5,5.344913807E-4
1.256441042E0,-9.926267667E-4,-6.872031372E-4,5.344913807E-4
1.258877136E0,-3.817795368E-4,5.344913807E-4,1.145338640E-3
1.261313282E0,-3.817795368E-4,-1.298050396E-3,1.145338640E-3
1.263749428E0,-3.817795368E-4,-1.298050396E-3,-6.872031372E-4
1.266185521E0,-3.817795368E-4,-1.298050396E-3,-6.872031372E-4
1.268621667E0,2.290677221E-4,-1.298050396E-3,-1.298050396E-3
1.271057761E0,-3.817795368E-4,-1.908897655E-3,-6.872031372E-4
1.273493907E0,2.290677221E-4,5.344913807E-4,5.344913807E-4
1.275930053E0,1.450762269E-3,5.344913807E-4,5.344913807E-4
1.278366146E0,1.450762269E-3,5.344913807E-4,-7.635590737E-5
1.280802292E0,8.399150101E-4,2.367033157E-3,-7.635590737E-5
1.283238386E0,8.399150101E-4,2.977880416E-3,-6.872031372E-4
1.285674532E0,2.290677221E-4,1.145338640E-3,-6.872031372E-4
1.288110626E0,-3.817795368E-4,-1.298050396E-3,5.344913807E-4
1.290546771E0,-9.926267667E-4,-6.872031372E-4,-7.635590737E-5
1.292982917E0,-3.817795368E-4,5.344913807E-4,-1.298050396E-3
1.295419011E0,2.290677221E-4,-6.872031372E-4,-1.908897655E-3
1.297855157E0,-9.926267667E-4,-7.635590737E-5,-6.872031372E-4
1.300291251E0,-1.603474026E-3,-7.635590737E-5,-7.635590737E-5
1.302727396E0,-9.926267667E-4,-2.519744914E-3,-7.635590737E-5
1.305163542E0,2.290677221E-4,-7.635590737E-5,5.344913807E-4
1.307599636E0,2.290677221E-4,1.756185899E-3,1.145338640E-3
1.310035782E0,-9.926267667E-4,1.145338640E-3,-6.872031372E-4
1.312471876E0,-9.926267667E-4,-7.635590737E-5,-7.635590737E-5
1.314908021E0,8.399150101E-4,1.145338640E-3,5.344913807E-4
1.317344115E0,8.399150101E-4,1.756185899E-3,-7.635590737E-5
1.319780261E0,2.061609412E-3,3.588727675E-3,1.145338640E-3
1.322216407E0,-3.817795368E-4,-1.908897655E-3,1.145338640E-3
1.324652501E0,-3.817795368E-4,-6.872031372E-4,1.145338640E-3
1.327088646E0,2.290677221E-4,-1.908897655E-3,-7.635590737E-5
1.329524740E0,-3.817795368E-4,-6.872031372E-4,5.344913807E-4
1.331960886E0,-3.817795368E-4,1.145338640E-3,5.344913807E-4
1.334396980E0,-9.926267667E-4,1.145338640E-3,-7.635590737E-5
1.336833126E0,-9.926267667E-4,-7.635590737E-5,5.344913807E-4
1.339269271E0,2.290677221E-4,-7.635590737E-5,5.344913807E-4
1.341705365E0,-9.926267667E-4,-7.635590737E-5,-6.872031372E-4
1.344141511E0,2.290677221E-4,1.145338640E-3,5.344913807E-4
1.346577605E0,-9.926267667E-4,-6.872031372E-4,5.344913807E-4
1.349013751E0,-3.817795368E-4,1.145338640E-3,-7.635590737E-5
1.351449844E0,1.450762269E-3,2.367033157E-3,1.145338640E-3
1.353885990E0,8.399150101E-4,1.756185899E-3,-6.872031372E-4
1.356322136E0,-1.603474026E-3,-1.298050396E-3,-1.298050396E-3
1.358758230E0,-3.817795368E-4,5.344913807E-4,-6.872031372E-4
1.361194376E0,-3.817795368E-4,1.145338640E-3,-6.872031372E-4
1.363630469E0,-9.926267667E-4,5.344913807E-4,-1.908897655E-3
1.366066615E0,-3.817795368E-4,-6.872031372E-4,-6.872031372E-4
1.368502761E0,-1.603474026E-3,-6.872031372E-4,-6.872031372E-4
1.370938855E0,2.290677221E-4,1.756185899E-3,-1.298050396E-3
1.373375001E0,2.290677221E-4,5.344913807E-4,-2.519744914E-3
1.375811094E0,-3.817795368E-4,5.344913807E-4,-6.872031372E-4
1.378247240E0,8.399150101E-4,-1.298050396E-3,-6.872031372E-4
1.380683386E0,1.450762269E-3,-1.908897655E-3,-7.635590737E-5
1.383119480E0,2.290677221E-4,-6.872031372E-4,-7.635590737E-5
1.385555626E0,2.290677221E-4,5.344913807E-4,5.344913807E-4
1.387991719E0,2.290677221E-4,-7.635590737E-5,-7.635590737E-5
1.390427865E0,1.450762269E-3,-7.635590737E-5,-7.635590737E-5
1.392863959E0,8.399150101E-4,1.756185899E-3,-1.298050396E-3
1.395300105E0,8.399150101E-4,5.344913807E-4,1.756185899E-3
1.397736251E0,8.399150101E-4,1.756185899E-3,1.756185899E-3
1.400172344E0,2.290677221E-4,1.756185899E-3,5.344913807E-4
1.402608490E0,8.399150101E-4,5.344913807E-4,2.367033157E-3
1.405044584E0,1.450762269E-3,5.344913807E-4,-7.635590737E-5
1.407480730E0,8.399150101E-4,5.344913807E-4,-6.872031372E-4
1.409916823E0,-3.817795368E-4,-7.635590737E-5,-7.635590737E-5
1.412352969E0,8.399150101E-4,1.145338640E-3,-7.635590737E-5
1.414789115E0,-3.817795368E-4,-7.635590737E-5,1.756185899E-3
1.417225209E0,-9.926267667E-4,5.344913807E-4,5.344913807E-4
1.419661355E0,2.290677221E-4,-7.635590737E-5,-6.872031372E-4
1.422097448E0,8.399150101E-4,1.145338640E-3,-1.298050396E-3
1.424533594E0,1.450762269E-3,1.145338640E-3,-7.635590737E-5
1.426969740E0,-3.817795368E-4,5.344913807E-4,1.145338640E-3
1.429405834E0,-3.817795368E-4,-7.635590737E-5,-6.872031372E-4
1.431841980E0,1.450762269E-3,-7.635590737E-5,-7.635590737E-5
1.434278073E0,2.290677221E-4,-6.872031372E-4,-6.872031372E-4
1.436714219E0,2.290677221E-4,5.344913807E-4,-6.872031372E-4
1.439150313E0,-9.926267667E-4,-1.908897655E-3,-7.635590737E-5
1.441586459E0,2.290677221E-4,-7.635590737E-5,1.756185899E-3
1.444022605E0,-9.926267667E-4,-7.635590737E-5,-6.872031372E-4
1.446458698E0,-3.817795368E-4,5.344913807E-4,5.344913807E-4
1.448894844E0,2.290677221E-4,-6.872031372E-4,-7.635590737E-5
1.451330938E0,-9.926267667E-4,-6.872031372E-4,-7.635590737E-5
1.453767084E0,-9.926267667E-4,1.145338640E-3,1.145338640E-3
1.456203230E0,8.399150101E-4,2.367033157E-3,-7.635590737E-5
1.458639323E0,-3.817795368E-4,1.145338640E-3,-7.635590737E-5
1.461075469E0,8.399150101E-4,5.344913807E-4,-7.635590737E-5
1.463511563E0,8.399150101E-4,-7.635590737E-5,1.145338640E-3
1.465947709E0,2.290677221E-4,-7.635590737E-5,5.344913807E-4
1.468383803E0,2.290677221E-4,-6.872031372E-4,1.145338640E-3
1.470819948E0,8.399150101E-4,1.756185899E-3,-7.635590737E-5
1.473256094E0,1.450762269E-3,1.145338640E-3,1.145338640E-3
1.475692188E0,-3.817795368E-4,-1.298050396E-3,-7.635590737E-5
1.478128334E0,-3.817795368E-4,-6.872031372E-4,5.344913807E-4
1.480564428E0,-3.817795368E-4,1.145338640E-3,-6.872031372E-4
1.483000573E0,2.061609412E-3,1.756185899E-3,-1.298050396E-3
1.485436719E0,2.290677221E-4,-7.635590737E-5,-6.872031372E-4
1.487872813E0,-3.817795368E-4,1.756185899E-3,5.344913807E-4
1.490308959E0,8.399150101E-4,2.977880416E-3,-6.872031372E-4
1.492745053E0,8.399150101E-4,1.145338640E-3,5.344913807E-4
1.495181198E0,2.290677221E-4,-7.635590737E-5,-6.872031372E-4
1.497617292E0,-2.214321401E-3,-6.872031372E-4,5.344913807E-4
1.500053438E0,-9.926267667E-4,-1.908897655E-3,-6.872031372E-4
1.502489532E0,-1.603474026E-3,-1.298050396E-3,-6.872031372E-4
1.504925678E0,-9.926267667E-4,-6.872031372E-4,-7.635590737E-5
1.507361823E0,2.290677221E-4,-7.635590737E-5,-1.908897655E-3
1.509797917E0,-9.926267667E-4,-6.872031372E-4,-7.635590737E-5
1.512234063E0,-3.817795368E-4,5.344913807E-4,5.344913807E-4
1.514670157E0,-9.926267667E-4,-1.298050396E-3,-1.298050396E-3
1.517106303E0,2.290677221E-4,5.344913807E-4,-7.635590737E-5
1.519542448E0,8.399150101E-4,5.344913807E-4,-7.635590737E-5
1.521978542E0,2.290677221E-4,1.756185899E-3,-7.635590737E-5
1.524414688E0,2.290677221E-4,2.367033157E-3,-7.635590737E-5
1.526850782E0,-9.926267667E-4,-7.635590737E-5,5.344913807E-4
1.529286928E0,2.290677221E-4,-1.298050396E-3,5.344913807E-4
1.531723021E0,2.290677221E-4,-7.635590737E-5,5.344913807E-4
1.534159167E0,-3.817795368E-4,5.344913807E-4,-6.872031372E-4
1.536595313E0,8.399150101E-4,1.145338640E-3,-1.298050396E-3
1.539031407E0,2.290677221E-4,5.344913807E-4,-7.635590737E-5
1.541467553E0,-9.926267667E-4,5.344913807E-4,-1.908897655E-3
1.543903646E0,-3.817795368E-4,-7.635590737E-5,-7.635590737E-5
1.546339792E0,-3.817795368E-4,-6.872031372E-4,-6.872031372E-4
1.548775886E0,2.290677221E-4,-7.635590737E-5,-1.298050396E-3
1.551212032E0,8.399150101E-4,5.344913807E-4,-7.635590737E-5
1.553648178E0,8.399150101E-4,1.756185899E-3,5.344913807E-4
1.556084271E0,8.399150101E-4,2.367033157E-3,-6.872031372E-4
1.558520417E0,2.290677221E-4,5.344913807E-4,-7.635590737E-5
1.560956511E0,-9.926267667E-4,-1.298050396E-3,-7.635590737E-5
1.563392657E0,2.290677221E-4,-1.298050396E-3,-7.635590737E-5
1.565828803E0,-3.817795368E-4,5.344913807E-4,-6.872031372E-4
1.568264896E0,2.290677221E-4,5.344913807E-4,-7.635590737E-5
1.570701042E0,2.061609412E-3,1.145338640E-3,5.344913807E-4
1.573137136E0,1.450762269E-3,1.756185899E-3,-6.872031372E-4
1.575573282E0,8.399150101E-4,1.145338640E-3,-7.635590737E-5
1.578009428E0,2.290677221E-4,-1.908897655E-3,-6.872031372E-4
1.580445521E0,8.399150101E-4,-7.635590737E-5,5.344913807E-4
1.582881667E0,2.290677221E-4,-6.872031372E-4,1.145338640E-3
1.585317761E0,-9.926267667E-4,-6.872031372E-4,-7.635590737E-5
1.587753907E0,-9.926267667E-4,-6.872031372E-4,-7.635590737E-5
1.590190001E0,-2.214321401E-3,-1.908897655E-3,-6.872031372E-4
1.592626146E0,-9.926267667E-4,-6.872031372E-4,5.344913807E-4
1.595062240E0,2.290677221E-4,1.756185899E-3,-7.635590737E-5
1.597498386E0,1.450762269E-3,1.756185899E-3,1.145338640E-3
1.599934532E0,-9.926267667E-4,-1.298050396E-3,1.145338640E-3
1.602370626E0,-3.817795368E-4,5.344913807E-4,5.344913807E-4
1.604806771E0,-3.817795368E-4,-7.635590737E-5,-7.635590737E-5
1.607242865E0,2.290677221E-4,1.145338640E-3,1.756185899E-3
1.609679011E0,2.061609412E-3,1.756185899E-3,5.344913807E-4
1.612115105E0,2.290677221E-4,-7.635590737E-5,-7.635590737E-5
1.614551251E0,1.450762269E-3,5.344913807E-4,1.145338640E-3
1.616987396E0,1.450762269E-3,2.367033157E-3,5.344913807E-4
1.619423490E0,-9.926267667E-4,2.367033157E-3,1.145338640E-3
1.621859636E0,-9.926267667E-4,-6.872031372E-4,5.344913807E-4
1.624295730E0,-1.603474026E-3,1.145338640E-3,5.344913807E-4
1.626731876E0,-9.926267667E-4,-2.519744914E-3,-1.298050396E-3
1.629168021E0,8.399150101E-4,-1.908897655E-3,-6.872031372E-4
1.631604115E0,2.290677221E-4,5.344913807E-4,-1.908897655E-3
1.634040261E0,-3.817795368E-4,-6.872031372E-4,-7.635590737E-5
1.636476355E0,-9.926267667E-4,-1.298050396E-3,-6.872031372E-4
1.638912501E0,-1.603474026E-3,-3.130592173E-3,1.145338640E-3
1.641348594E0,-3.817795368E-4,-1.908897655E-3,5.344913807E-4
1.643784740E0,-9.926267667E-4,-7.635590737E-5,-7.635590737E-5
1.646220886E0,-3.817795368E-4,-7.635590737E-5,-6.872031372E-4
1.648656980E0,-3.817795368E-4,-7.635590737E-5,5.344913807E-4
1.651093126E0,-3.817795368E-4,-7.635590737E-5,5.344913807E-4
1.653529219E0,8.399150101E-4,1.756185899E-3,-1.298050396E-3
1.655965365E0,2.290677221E-4,1.145338640E-3,-1.298050396E-3
1.658401459E0,8.399150101E-4,-7.635590737E-5,-1.298050396E-3
1.660837605E0,2.290677221E-4,1.756185899E-3,1.145338640E-3
1.663273751E0,2.290677221E-4,-7.635590737E-5,1.756185899E-3
1.665709844E0,8.399150101E-4,-7.635590737E-5,-7.635590737E-5
1.668145990E0,-3.817795368E-4,-1.298050396E-3,-7.635590737E-5
1.670582084E0,-3.817795368E-4,5.344913807E-4,-7.635590737E-5
1.673018230E0,-1.603474026E-3,-7.635590737E-5,-7.635590737E-5
1.675454376E0,-2.214321401E-3,-7.635590737E-5,1.145338640E-3
1.677890469E0,-3.817795368E-4,1.145338640E-3,-6.872031372E-4
1.680326615E0,8.399150101E-4,1.756185899E-3,-1.298050396E-3
1.682762709E0,-3.817795368E-4,-7.635590737E-5,-7.635590737E-5
1.685198855E0,-9.926267667E-4,-7.635590737E-5,-1.298050396E-3
1.687634948E0,-3.817795368E-4,1.145338640E-3,5.344913807E-4
1.690071094E0,-9.926267667E-4,-6.872031372E-4,1.756185899E-3
1.692507240E0,-3.817795368E-4,5.344913807E-4,1.145338640E-3
1.694943334E0,2.290677221E-4,1.145338640E-3,1.145338640E-3
1.697379480E0,-9.926267667E-4,1.756185899E-3,-6.872031372E-4
1.699815573E0,-3.817795368E-4,5.344913807E-4,5.344913807E-4
1.702251719E0,1.450762269E-3,3.588727675E-3,-7.635590737E-5
1.704687813E0,-3.817795368E-4,-7.635590737E-5,-1.908897655E-3
1.707123959E0,-3.817795368E-4,-7.635590737E-5,-6.872031372E-4
1.709560105E0,-1.603474026E-3,-1.908897655E-3,-7.635590737E-5
1.711996198E0,2.290677221E-4,-1.908897655E-3,5.344913807E-4
1.714432344E0,2.290677221E-4,-7.635590737E-5,-6.872031372E-4
1.716868438E0,2.290677221E-4,-7.635590737E-5,5.344913807E-4
1.719304584E0,-3.817795368E-4,-1.908897655E-3,5.344913807E-4
1.721740678E0,2.290677221E-4,1.145338640E-3,-7.635590737E-5
1.724176823E0,1.450762269E-3,5.344913807E-4,-6.872031372E-4
1.726612969E0,1.450762269E-3,2.367033157E-3,5.344913807E-4
1.729049063E0,2.290677221E-4,-7.635590737E-5,-7.635590737E-5
1.731485209E0,-3.817795368E-4,-7.635590737E-5,-6.872031372E-4
1.733921303E0,-3.817795368E-4,5.344913807E-4,-7.635590737E-5
1.736357448E0,-3.817795368E-4,1.145338640E-3,-7.635590737E-5
1.738793542E0,-3.817795368E-4,5.344913807E-4,-7.635590737E-5
1.741229688E0,2.290677221E-4,1.145338640E-3,5.344913807E-4
1.743665834E0,8.399150101E-4,-7.635590737E-5,-1.298050396E-3
1.746101928E0,2.290677221E-4,-7.635590737E-5,-6.872031372E-4
1.748538073E0,2.290677221E-4,-6.872031372E-4,-7.635590737E-5
1.750974167E0,2.290677221E-4,5.344913807E-4,-7.635590737E-5
1.753410313E0,-9.926267667E-4,1.145338640E-3,-6.872031372E-4
1.755846407E0,1.450762269E-3,1.145338640E-3,1.145338640E-3
1.758282553E0,1.450762269E-3,-7.635590737E-5,-7.635590737E-5
1.760718698E0,-9.926267667E-4,-6.872031372E-4,-7.635590737E-5
1.763154792E0,-1.603474026E-3,-7.635590737E-5,-7.635590737E-5
1.765590938E0,2.290677221E-4,-7.635590737E-5,-7.635590737E-5
1.768027032E0,-9.926267667E-4,5.344913807E-4,-1.298050396E-3
1.770463178E0,-1.603474026E-3,-1.298050396E-3,-6.872031372E-4
1.772899323E0,-9.926267667E-4,-1.298050396E-3,1.145338640E-3
1.775335417E0,-9.926267667E-4,-3.130592173E-3,-7.635590737E-5
1.777771563E0,-3.817795368E-4,-1.298050396E-3,5.344913807E-4
1.780207657E0,8.399150101E-4,2.367033157E-3,5.344913807E-4
1.782643803E0,8.399150101E-4,-7.635590737E-5,5.344913807E-4
1.785079896E0,8.399150101E-4,-6.872031372E-4,-7.635590737E-5
1.787516042E0,2.290677221E-4,1.756185899E-3,-7.635590737E-5
1.789952188E0,8.399150101E-4,2.977880416E-3,-6.872031372E-4
1.792388282E0,1.450762269E-3,1.145338640E-3,-7.635590737E-5
1.794824428E0,2.290677221E-4,1.756185899E-3,-1.298050396E-3
1.797260521E0,2.290677221E-4,1.145338640E-3,1.145338640E-3
1.799696667E0,-3.817795368E-4,-7.635590737E-5,-1.298050396E-3
1.802132761E0,-9.926267667E-4,-7.635590737E-5,-6.872031372E-4
1.804568907E0,1.450762269E-3,1.756185899E-3,-1.298050396E-3
1.807005053E0,1.450762269E-3,1.756185899E-3,-7.635590737E-5
1.809441146E0,-3.817795368E-4,1.145338640E-3,-1.908897655E-3
1.811877292E0,8.399150101E-4,1.145338640E-3,-1.908897655E-3
1.814313386E0,-1.603474026E-3,5.344913807E-4,-7.635590737E-5
1.816749532E0,-9.926267667E-4,-6.872031372E-4,1.756185899E-3
1.819185626E0,2.290677221E-4,1.145338640E-3,-6.872031372E-4
1.821621771E0,2.290677221E-4,1.756185899E-3,5.344913807E-4
1.824057917E0,-3.817795368E-4,-7.635590737E-5,-7.635590737E-5
1.826494011E0,-3.817795368E-4,1.145338640E-3,-6.872031372E-4
1.828930157E0,1.450762269E-3,5.344913807E-4,-1.298050396E-3
1.831366251E0,8.399150101E-4,5.344913807E-4,-7.635590737E-5
1.833802396E0,-3.817795368E-4,5.344913807E-4,-6.872031372E-4
1.836238490E0,8.399150101E-4,5.344913807E-4,-6.872031372E-4
1.838674636E0,8.399150101E-4,-7.635590737E-5,5.344913807E-4
1.841110782E0,-3.817795368E-4,-6.872031372E-4,-7.635590737E-5
1.843546876E0,2.290677221E-4,-7.635590737E-5,1.145338640E-3
1.845983021E0,-3.817795368E-4,5.344913807E-4,-7.635590737E-5
1.848419115E0,-3.817795368E-4,-1.298050396E-3,-7.635590737E-5
1.850855261E0,1.450762269E-3,-7.635590737E-5,5.344913807E-4
1.853291355E0,-2.214321401E-3,5.344913807E-4,5.344913807E-4
1.855727501E0,-9.926267667E-4,1.756185899E-3,5.344913807E-4
1.858163646E0,2.290677221E-4,-7.635590737E-5,-7.635590737E-5
1.860599740E0,-3.817795368E-4,1.145338640E-3,1.145338640E-3
1.863035886E0,8.399150101E-4,-7.635590737E-5,5.344913807E-4
1.865471980E0,-3.817795368E-4,-7.635590737E-5,-1.298050396E-3
1.867908126E0,8.399150101E-4,5.344913807E-4,-7.635590737E-5
1.870344219E0,1.450762269E-3,-7.635590737E-5,5.344913807E-4
1.872780365E0,1.450762269E-3,5.344913807E-4,-6.872031372E-4
1.875216511E0,2.290677221E-4,1.145338640E-3,-1.298050396E-3
1.877652605E0,-3.817795368E-4,-1.908897655E-3,5.344913807E-4
1.880088751E0,-3.817795368E-4,-1.298050396E-3,5.344913807E-4
1.882524844E0,-9.926267667E-4,-6.872031372E-4,-7.635590737E-5
1.884960990E0,-3.817795368E-4,5.344913807E-4,-7.635590737E-5
1.887397136E0,8.399150101E-4,-7.635590737E-5,-6.872031372E-4
1.889833230E0,-9.926267667E-4,-1.298050396E-3,-7.635590737E-5
1.892269376E0,-3.817795368E-4,-7.635590737E-5,-1.298050396E-3
1.894705469E0,-9.926267667E-4,-7.635590737E-5,-6.872031372E-4
1.897141615E0,-3.817795368E-4,-6.872031372E-4,-6.872031372E-4
1.899577709E0,2.290677221E-4,-6.872031372E-4,-6.872031372E-4
1.902013855E0,-3.817795368E-4,-7.635590737E-5,-6.872031372E-4
1.904450001E0,2.290677221E-4,1.145338640E-3,5.344913807E-4
1.906886094E0,-3.817795368E-4,1.756185899E-3,1.145338640E-3
1.909322240E0,1.450762269E-3,2.367033157E-3,5.344913807E-4
1.911758334E0,2.061609412E-3,2.977880416E-3,-7.635590737E-5
1.914194480E0,2.290677221E-4,1.756185899E-3,-7.635590737E-5
1.916630573E0,-3.817795368E-4,1.145338640E-3,-7.635590737E-5
1.919066719E0,-3.817795368E-4,-1.298050396E-3,-7.635590737E-5
1.921502813E0,2.290677221E-4,-6.872031372E-4,-7.635590737E-5
1.923938959E0,-3.817795368E-4,5.344913807E-4,-6.872031372E-4
1.926375105E0,-1.603474026E-3,-2.519744914E-3,1.145338640E-3
1.928811198E0,-1.603474026E-3,-1.298050396E-3,1.145338640E-3
1.931247344E0,-1.603474026E-3,-1.908897655E-3,-6.872031372E-4
1.933683438E0,-3.817795368E-4,-7.635590737E-5,-6.872031372E-4
1.936119584E0,-3.817795368E-4,-6.872031372E-4,-7.635590737E-5
1.938555730E0,-9.926267667E-4,-6.872031372E-4,-1.298050396E-3
1.940991823E0,-1.603474026E-3,-6.872031372E-4,1.756185899E-3
1.943427969E0,2.290677221E-4,-7.635590737E-5,-6.872031372E-4
1.945864063E0,8.399150101E-4,-7.635590737E-5,-6.872031372E-4
1.948300209E0,2.290677221E-4,5.344913807E-4,-7.635590737E-5
1.950736303E0,8.399150101E-4,-6.872031372E-4,-6.872031372E-4
1.953172448E0,-1.603474026E-3,5.344913807E-4,5.344913807E-4
1.955608594E0,-3.817795368E-4,5.344913807E-4,-7.635590737E-5
1.958044688E0,-3.817795368E-4,-7.635590737E-5,1.145338640E-3
1.960480834E0,1.450762269E-3,5.344913807E-4,1.145338640E-3
1.962916928E0,1.450762269E-3,2.977880416E-3,1.756185899E-3
1.965353073E0,8.399150101E-4,1.756185899E-3,1.145338640E-3
1.967789167E0,-3.817795368E-4,-7.635590737E-5,5.344913807E-4
1.970225313E0,-3.817795368E-4,5.344913807E-4,5.344913807E-4
1.972661459E0,2.061609412E-3,1.145338640E-3,-7.635590737E-5
1.975097553E0,2.290677221E-4,2.977880416E-3,-6.872031372E-4
1.977533698E0,2.061609412E-3,2.367033157E-3,-7.635590737E-5
1.979969792E0,2.061609412E-3,2.367033157E-3,5.344913807E-4
1.982405938E0,8.399150101E-4,1.145338640E-3,5.344913807E-4
1.984842032E0,2.290677221E-4,-1.298050396E-3,-6.872031372E-4
1.987278178E0,2.290677221E-4,-7.635590737E-5,-1.908897655E-3
1.989714323E0,2.290677221E-4,-1.298050396E-3,-7.635590737E-5
1.992150417E0,-9.926267667E-4,-6.872031372E-4,-7.635590737E-5
1.994586563E0,-1.603474026E-3,-7.635590737E-5,-7.635590737E-5
1.997022657E0,-3.817795368E-4,-1.908897655E-3,1.145338640E-3
1.999458803E0,-9.926267667E-4,-1.908897655E-3,5.344913807E-4
2.001894896E0,-1.603474026E-3,-1.908897655E-3,5.344913807E-4
2.004331042E0,2.290677221E-4,-7.635590737E-5,-6.872031372E-4
2.006767188E0,8.399150101E-4,5.344913807E-4,-6.872031372E-4
2.009203282E0,-1.603474026E-3,-6.872031372E-4,-7.635590737E-5
2.011639428E0,1.450762269E-3,2.367033157E-3,-2.519744914E-3
2.014075521E0,2.061609412E-3,2.367033157E-3,-1.298050396E-3
2.016511667E0,1.450762269E-3,1.145338640E-3,-7.635590737E-5
2.018947761E0,2.290677221E-4,-7.635590737E-5,-7.635590737E-5
2.021383907E0,-3.817795368E-4,1.145338640E-3,5.344913807E-4
2.023820001E0,8.399150101E-4,5.344913807E-4,-7.635590737E-5
2.026256146E0,-3.817795368E-4,5.344913807E-4,2.367033157E-3
2.028692292E0,-1.603474026E-3,-1.908897655E-3,1.145338640E-3
2.031128386E0,-9.926267667E-4,-1.908897655E-3,2.977880416E-3
2.033564532E0,-2.214321401E-3,-6.872031372E-4,-6.872031372E-4
2.036000626E0,2.290677221E-4,-7.635590737E-5,-6.872031372E-4
2.038436771E0,2.290677221E-4,5.344913807E-4,-1.908897655E-3
2.040872917E0,-1.603474026E-3,-1.298050396E-3,-7.635590737E-5
2.043309011E0,-9.926267667E-4,-1.908897655E-3,-6.872031372E-4
2.045745157E0,-9.926267667E-4,-2.519744914E-3,1.756185899E-3
2.048181251E0,2.290677221E-4,1.145338640E-3,-1.298050396E-3
2.050617396E0,-1.603474026E-3,-1.298050396E-3,5.344913807E-4
2.053053490E0,2.290677221E-4,-7.635590737E-5,-1.298050396E-3
2.055489636E0,-9.926267667E-4,-7.635590737E-5,-6.872031372E-4
2.057925782E0,2.061609412E-3,1.145338640E-3,-6.872031372E-4
2.060361876E0,2.290677221E-4,5.344913807E-4,1.145338640E-3
2.062798021E0,1.450762269E-3,1.756185899E-3,5.344913807E-4
2.065234115E0,-3.817795368E-4,5.344913807E-4,1.145338640E-3
2.067670261E0,2.290677221E-4,-7.635590737E-5,1.756185899E-3
2.070106355E0,-3.817795368E-4,1.145338640E-3,1.756185899E-3
2.072542501E0,2.290677221E-4,2.367033157E-3,-1.298050396E-3
2.074978646E0,8.399150101E-4,1.756185899E-3,-1.298050396E-3
2.077414740E0,2.061609412E-3,2.977880416E-3,-1.298050396E-3
2.079850886E0,8.399150101E-4,1.756185899E-3,-7.635590737E-5
2.082286980E0,-3.817795368E-4,1.756185899E-3,1.145338640E-3
2.084723126E0,-9.926267667E-4,-7.635590737E-5,5.344913807E-4
2.087159219E0,-3.817795368E-4,5.344913807E-4,-1.298050396E-3
2.089595365E0,2.290677221E-4,-7.635590737E-5,-1.908897655E-3
2.092031511E0,1.450762269E-3,5.344913807E-4,-7.635590737E-5
2.094467605E0,2.290677221E-4,2.367033157E-3,-7.635590737E-5
2.096903751E0,-9.926267667E-4,5.344913807E-4,-6.872031372E-4
2.099339844E0,-1.603474026E-3,-6.872031372E-4,-6.872031372E-4
2.101775990E0,8.399150101E-4,1.756185899E-3,-1.298050396E-3
2.104212084E0,2.290677221E-4,-6.872031372E-4,-1.298050396E-3
2.106648230E0,-3.817795368E-4,-6.872031372E-4,5.344913807E-4
2.109084323E0,8.399150101E-4,2.367033157E-3,-7.635590737E-5
2.111520469E0,-9.926267667E-4,1.145338640E-3,-7.635590737E-5
2.113956615E0,-3.817795368E-4,5.344913807E-4,-6.872031372E-4
2.116392709E0,-9.926267667E-4,5.344913807E-4,5.344913807E-4
2.118828855E0,-9.926267667E-4,1.756185899E-3,-1.298050396E-3
2.121264948E0,-9.926267667E-4,-6.872031372E-4,-7.635590737E-5
2.123701094E0,2.290677221E-4,-7.635590737E-5,-7.635590737E-5
2.126137188E0,8.399150101E-4,-7.635590737E-5,-6.872031372E-4
2.128573334E0,8.399150101E-4,-6.872031372E-4,-7.635590737E-5
2.131009480E0,2.290677221E-4,-6.872031372E-4,5.344913807E-4
2.133445573E0,-3.817795368E-4,-6.872031372E-4,-7.635590737E-5
2.135881719E0,8.399150101E-4,-7.635590737E-5,5.344913807E-4
2.138317813E0,-3.817795368E-4,1.145338640E-3,1.145338640E-3
2.140753959E0,-3.817795368E-4,1.145338640E-3,-7.635590737E-5
2.143190105E0,-9.926267667E-4,1.145338640E-3,5.344913807E-4
2.145626198E0,2.290677221E-4,1.145338640E-3,-7.635590737E-5
2.148062344E0,-3.817795368E-4,1.145338640E-3,1.145338640E-3
2.150498438E0,2.290677221E-4,-6.872031372E-4,5.344913807E-4
2.152934584E0,8.399150101E-4,5.344913807E-4,-6.872031372E-4
2.155370678E0,8.399150101E-4,1.145338640E-3,-6.872031372E-4
2.157806823E0,-3.817795368E-4,-7.635590737E-5,-6.872031372E-4
2.160242917E0,2.290677221E-4,-7.635590737E-5,1.145338640E-3
2.162679063E0,8.399150101E-4,1.145338640E-3,-1.908897655E-3
2.165115209E0,-9.926267667E-4,-7.635590737E-5,1.145338640E-3
2.167551303E0,-3.817795368E-4,1.145338640E-3,5.344913807E-4
2.169987448E0,-3.817795368E-4,1.145338640E-3,1.756185899E-3
2.172423542E0,2.290677221E-4,1.145338640E-3,-6.872031372E-4
2.174859688E0,2.290677221E-4,1.145338640E-3,-7.635590737E-5
2.177295782E0,-9.926267667E-4,5.344913807E-4,-7.635590737E-5
2.179731928E0,-1.603474026E-3,5.344913807E-4,5.344913807E-4
2.182168073E0,-3.817795368E-4,5.344913807E-4,-6.872031372E-4
2.184604167E0,1.450762269E-3,5.344913807E-4,1.756185899E-3
2.187040313E0,8.399150101E-4,1.145338640E-3,5.344913807E-4
2.189476407E0,8.399150101E-4,-6.872031372E-4,-6.872031372E-4
2.191912553E0,8.399150101E-4,5.344913807E-4,-1.298050396E-3
2.194348646E0,-9.926267667E-4,5.344913807E-4,5.344913807E-4
2.196784792E0,-9.926267667E-4,-7.635590737E-5,-6.872031372E-4
2.199220938E0,-3.817795368E-4,1.145338640E-3,5.344913807E-4
2.201657032E0,-3.817795368E-4,-6.872031372E-4,5.344913807E-4
2.204093178E0,8.399150101E-4,-1.298050396E-3,1.756185899E-3
2.206529271E0,-3.817795368E-4,-6.872031372E-4,5.344913807E-4
2.208965417E0,1.450762269E-3,-7.635590737E-5,-7.635590737E-5
2.211401511E0,1.450762269E-3,5.344913807E-4,1.145338640E-3
2.213837657E0,-3.817795368E-4,5.344913807E-4,-7.635590737E-5
2.216273803E0,2.290677221E-4,2.367033157E-3,5.344913807E-4
2.218709896E0,8.399150101E-4,1.756185899E-3,-7.635590737E-5
2.221146042E0,-3.817795368E-4,-1.298050396E-3,-6.872031372E-4
2.223582136E0,-3.817795368E-4,-7.635590737E-5,5.344913807E-4
2.226018282E0,-1.603474026E-3,-6.872031372E-4,2.367033157E-3
2.228454376E0,2.290677221E-4,-7.635590737E-5,-7.635590737E-5
2.230890521E0,2.290677221E-4,-6.872031372E-4,-6.872031372E-4
2.233326667E0,2.290677221E-4,1.145338640E-3,-6.872031372E-4
2.235762761E0,8.399150101E-4,1.145338640E-3,5.344913807E-4
2.238198907E0,2.290677221E-4,-7.635590737E-5,-6.872031372E-4
2.240635001E0,-3.817795368E-4,-7.635590737E-5,1.756185899E-3
2.243071146E0,-3.817795368E-4,1.145338640E-3,-1.298050396E-3
2.245507240E0,-3.817795368E-4,5.344913807E-4,5.344913807E-4
2.247943386E0,2.672456671E-3,1.756185899E-3,-6.872031372E-4
2.250379480E0,2.290677221E-4,-7.635590737E-5,5.344913807E-4
2.252815626E0,-3.817795368E-4,1.145338640E-3,-6.872031372E-4
2.255251771E0,2.290677221E-4,-7.635590737E-5,-1.298050396E-3
2.257687865E0,2.290677221E-4,5.344913807E-4,-7.635590737E-5
2.260124011E0,-1.603474026E-3,-7.635590737E-5,-7.635590737E-5
2.262560105E0,-3.817795368E-4,-7.635590737E-5,-7.635590737E-5
2.264996251E0,2.290677221E-4,-7.635590737E-5,-7.635590737E-5
2.267432344E0,8.399150101E-4,5.344913807E-4,5.344913807E-4
2.269868490E0,-3.817795368E-4,5.344913807E-4,1.145338640E-3
2.272304636E0,-9.926267667E-4,-7.635590737E-5,1.145338640E-3
2.274740730E0,-3.817795368E-4,-1.298050396E-3,-7.635590737E-5
2.277176876E0,-3.817795368E-4,-7.635590737E-5,-7.635590737E-5
2.279612969E0,8.399150101E-4,1.145338640E-3,1.145338640E-3
2.282049115E0,-3.817795368E-4,5.344913807E-4,-7.635590737E-5
2.284485209E0,-3.817795368E-4,-1.908897655E-3,-1.298050396E-3
2.286921355E0,-3.817795368E-4,1.756185899E-3,1.145338640E-3
2.289357501E0,8.399150101E-4,5.344913807E-4,-1.298050396E-3
2.291793594E0,-3.817795368E-4,-6.872031372E-4,-6.872031372E-4
2.294229740E0,1.450762269E-3,1.145338640E-3,-7.635590737E-5
2.296665834E0,2.290677221E-4,-7.635590737E-5,-7.635590737E-5
2.299101980E0,-3.817795368E-4,-7.635590737E-5,-6.872031372E-4
2.301538073E0,-3.817795368E-4,-6.872031372E-4,-1.908897655E-3
2.303974219E0,2.290677221E-4,-6.872031372E-4,-7.635590737E-5
2.306410313E0,2.290677221E-4,-7.635590737E-5,5.344913807E-4
2.308846459E0,2.290677221E-4,-6.872031372E-4,-6.872031372E-4
2.311282605E0,1.450762269E-3,1.756185899E-3,-6.872031372E-4
2.313718698E0,1.450762269E-3,3.588727675E-3,5.344913807E-4
2.316154844E0,2.290677221E-4,1.756185899E-3,1.145338640E-3
2.318590938E0,-3.817795368E-4,-6.872031372E-4,1.145338640E-3
2.321027084E0,2.672456671E-3,1.145338640E-3,-1.908897655E-3
2.323463230E0,8.399150101E-4,1.145338640E-3,-7.635590737E-5
2.325899323E0,2.290677221E-4,-6.872031372E-4,-1.298050396E-3
2.328335469E0,8.399150101E-4,1.145338640E-3,-6.872031372E-4
2.330771563E0,1.450762269E-3,2.977880416E-3,5.344913807E-4
2.333207709E0,8.399150101E-4,1.145338640E-3,1.145338640E-3
2.335643803E0,8.399150101E-4,1.145338640E-3,-7.635590737E-5
2.338079948E0,-1.603474026E-3,1.145338640E-3,-6.872031372E-4
2.340516042E0,8.399150101E-4,5.344913807E-4,-7.635590737E-5
2.342952188E0,-9.926267667E-4,-1.908897655E-3,1.145338640E-3
2.345388334E0,8.399150101E-4,1.145338640E-3,-6.872031372E-4
2.347824428E0,8.399150101E-4,-7.635590737E-5,-7.635590737E-5
2.350260573E0,2.290677221E-4,-7.635590737E-5,-7.635590737E-5
2.352696667E0,2.290677221E-4,5.344913807E-4,-1.298050396E-3
2.355132813E0,2.290677221E-4,1.756185899E-3,-7.635590737E-5
2.357568907E0,-3.817795368E-4,-6.872031372E-4,5.344913807E-4
2.360005053E0,8.399150101E-4,5.344913807E-4,-7.635590737E-5
2.362441198E0,-3.817795368E-4,-7.635590737E-5,-7.635590737E-5
2.364877292E0,-9.926267667E-4,-2.519744914E-3,-7.635590737E-5
2.367313438E0,-3.817795368E-4,-2.519744914E-3,5.344913807E-4
2.369749532E0,-3.817795368E-4,-6.872031372E-4,5.344913807E-4
2.372185678E0,2.290677221E-4,1.145338640E-3,-7.635590737E-5
2.374621771E0,2.290677221E-4,-7.635590737E-5,5.344913807E-4
2.377057917E0,-3.817795368E-4,-7.635590737E-5,-7.635590737E-5
2.379494063E0,-3.817795368E-4,1.756185899E-3,-7.635590737E-5
2.381930157E0,8.399150101E-4,-7.635590737E-5,-7.635590737E-5
2.384366303E0,-3.817795368E-4,-6.872031372E-4,5.344913807E-4
2.386802396E0,-3.817795368E-4,-7.635590737E-5,-1.298050396E-3
2.389238542E0,2.290677221E-4,1.145338640E-3,-6.872031372E-4
2.391674636E0,-3.817795368E-4,5.344913807E-4,5.344913807E-4
2.394110782E0,2.290677221E-4,-7.635590737E-5,-7.635590737E-5
2.396546876E0,-1.603474026E-3,-6.872031372E-4,1.145338640E-3
2.398983021E0,-1.603474026E-3,-1.298050396E-3,-6.872031372E-4
2.401419167E0,-3.817795368E-4,-1.908897655E-3,5.344913807E-4
2.403855261E0,-1.603474026E-3,-1.908897655E-3,1.756185899E-3
2.406291407E0,2.290677221E-4,-7.635590737E-5,-6.872031372E-4
2.408727501E0,2.290677221E-4,5.344913807E-4,-7.635590737E-5
2.411163646E0,8.399150101E-4,5.344913807E-4,-6.872031372E-4
2.413599740E0,-3.817795368E-4,-2.519744914E-3,-1.908897655E-3
2.416035886E0,-9.926267667E-4,-1.908897655E-3,-7.635590737E-5
2.418471980E0,-3.817795368E-4,-6.872031372E-4,-6.872031372E-4
2.420908126E0,2.290677221E-4,-7.635590737E-5,1.145338640E-3
2.423344271E0,8.399150101E-4,1.145338640E-3,-7.635590737E-5
2.425780365E0,2.290677221E-4,-7.635590737E-5,-7.635590737E-5
2.428216511E0,2.290677221E-4,5.344913807E-4,-6.872031372E-4
2.430652605E0,8.399150101E-4,-7.635590737E-5,5.344913807E-4
2.433088751E0,2.290677221E-4,-1.908897655E-3,-7.635590737E-5
2.435524896E0,2.290677221E-4,5.344913807E-4,1.145338640E-3
2.437960990E0,1.450762269E-3,-7.635590737E-5,-7.635590737E-5
2.440397136E0,1.450762269E-3,-7.635590737E-5,-6.872031372E-4
2.442833230E0,-9.926267667E-4,-7.635590737E-5,-6.872031372E-4
2.445269376E0,-2.214321401E-3,-7.635590737E-5,1.756185899E-3
2.447705469E0,-9.926267667E-4,-6.872031372E-4,1.756185899E-3
2.450141615E0,2.290677221E-4,-6.872031372E-4,1.145338640E-3
2.452577709E0,2.290677221E-4,2.367033157E-3,-6.872031372E-4
2.455013855E0,-1.603474026E-3,1.145338640E-3,5.344913807E-4
2.457450001E0,-3.817795368E-4,-1.908897655E-3,-6.872031372E-4
2.459886094E0,8.399150101E-4,-7.635590737E-5,5.344913807E-4
2.462322240E0,-9.926267667E-4,2.367033157E-3,1.756185899E-3
2.464758334E0,-2.214321401E-3,-3.741439432E-3,-6.872031372E-4
2.467194480E0,2.672456671E-3,-2.519744914E-3,-7.635590737E-5
2.469630573E0,8.399150101E-4,4.810422193E-3,-7.635590737E-5
2.472066719E0,-9.926267667E-4,3.588727675E-3,-7.635590737E-5
2.474502813E0,-1.603474026E-3,-1.908897655E-3,-1.298050396E-3
2.476938959E0,-9.926267667E-4,-6.872031372E-4,-7.635590737E-5
2.479375105E0,8.399150101E-4,2.367033157E-3,-7.635590737E-5
2.481811198E0,-9.926267667E-4,-7.635590737E-5,5.344913807E-4
2.484247344E0,-1.603474026E-3,-3.130592173E-3,5.344913807E-4
2.486683438E0,-3.817795368E-4,5.344913807E-4,-1.908897655E-3
2.489119584E0,8.399150101E-4,1.145338640E-3,1.145338640E-3
2.491555678E0,8.399150101E-4,-6.872031372E-4,-7.635590737E-5
2.493991823E0,8.399150101E-4,-6.872031372E-4,5.344913807E-4
2.496427969E0,2.290677221E-4,1.756185899E-3,5.344913807E-4
2.498864063E0,-3.817795368E-4,1.756185899E-3,-6.872031372E-4
2.501300209E0,2.290677221E-4,1.145338640E-3,-7.635590737E-5
2.503736303E0,-1.603474026E-3,-6.872031372E-4,-6.872031372E-4
2.506172448E0,8.399150101E-4,-6.872031372E-4,5.344913807E-4
2.508608542E0,2.290677221E-4,5.344913807E-4,5.344913807E-4
2.511044688E0,-9.926267667E-4,-7.635590737E-5,1.145338640E-3
2.513480834E0,-1.603474026E-3,-1.908897655E-3,1.145338640E-3
2.515916928E0,-3.817795368E-4,-2.519744914E-3,-7.635590737E-5
2.518353073E0,-2.214321401E-3,-1.908897655E-3,-6.872031372E-4
2.520789167E0,2.290677221E-4,-6.872031372E-4,-6.872031372E-4
2.523225313E0,8.399150101E-4,-6.872031372E-4,5.344913807E-4
2.525661407E0,-9.926267667E-4,-7.635590737E-5,-7.635590737E-5
2.528097553E0,2.290677221E-4,5.344913807E-4,-6.872031372E-4
2.530533698E0,-9.926267667E-4,-1.298050396E-3,-7.635590737E-5
2.532969792E0,-1.603474026E-3,5.344913807E-4,-7.635590737E-5
2.535405938E0,-1.603474026E-3,-7.635590737E-5,5.344913807E-4
2.537842032E0,-3.817795368E-4,-7.635590737E-5,1.756185899E-3
2.540278178E0,-9.926267667E-4,-1.298050396E-3,5.344913807E-4
2.542714271E0,8.399150101E-4,2.367033157E-3,5.344913807E-4
2.545150417E0,-3.817795368E-4,5.344913807E-4,1.145338640E-3
2.547586511E0,-9.926267667E-4,-7.635590737E-5,-6.872031372E-4
2.550022657E0,-3.817795368E-4,1.145338640E-3,-7.635590737E-5
2.552458803E0,2.290677221E-4,1.756185899E-3,1.145338640E-3
2.554894896E0,-3.817795368E-4,-1.298050396E-3,5.344913807E-4
2.557331042E0,-9.926267667E-4,-1.298050396E-3,-7.635590737E-5
2.559767136E0,-3.817795368E-4,2.367033157E-3,-1.298050396E-3
2.562203282E0,2.290677221E-4,5.344913807E-4,5.344913807E-4
2.564639376E0,-1.603474026E-3,-7.635590737E-5,-6.872031372E-4
2.567075521E0,-1.603474026E-3,5.344913807E-4,1.145338640E-3
2.569511615E0,-9.926267667E-4,2.367033157E-3,5.344913807E-4
2.571947761E0,8.399150101E-4,1.145338640E-3,5.344913807E-4
2.574383907E0,2.672456671E-3,2.367033157E-3,1.145338640E-3
2.576820001E0,-9.926267667E-4,-7.635590737E-5,5.344913807E-4
2.579256146E0,2.290677221E-4,-1.298050396E-3,-6.872031372E-4
2.581692240E0,2.290677221E-4,-6.872031372E-4,-7.635590737E-5
2.584128386E0,2.290677221E-4,1.145338640E-3,-7.635590737E-5
2.586564480E0,8.399150101E-4,1.145338640E-3,5.344913807E-4
2.589000626E0,2.290677221E-4,5.344913807E-4,5.344913807E-4
2.591436771E0,2.290677221E-4,1.145338640E-3,-7.635590737E-5
2.593872865E0,-3.817795368E-4,2.367033157E-3,1.145338640E-3
2.596309011E0,-3.817795368E-4,-1.908897655E-3,5.344913807E-4
2.598745105E0,8.399150101E-4,-7.635590737E-5,-6.872031372E-4
2.601181251E0,-3.817795368E-4,-1.908897655E-3,5.344913807E-4
2.603617344E0,8.399150101E-4,5.344913807E-4,1.145338640E-3
2.606053490E0,8.399150101E-4,1.756185899E-3,5.344913807E-4
2.608489636E0,1.450762269E-3,2.977880416E-3,-6.872031372E-4
2.610925730E0,-9.926267667E-4,-7.635590737E-5,-1.298050396E-3
2.613361876E0,2.290677221E-4,-1.298050396E-3,-7.635590737E-5
2.615797969E0,8.399150101E-4,1.145338640E-3,-7.635590737E-5
2.618234115E0,2.290677221E-4,2.367033157E-3,-6.872031372E-4
2.620670209E0,1.450762269E-3,1.756185899E-3,-7.635590737E-5
2.623106355E0,-3.817795368E-4,-6.872031372E-4,1.145338640E-3
2.625542501E0,-1.603474026E-3,-7.635590737E-5,-7.635590737E-5
2.627978594E0,-3.817795368E-4,1.756185899E-3,5.344913807E-4
2.630414740E0,-3.817795368E-4,-7.635590737E-5,5.344913807E-4
2.632850834E0,2.290677221E-4,2.367033157E-3,5.344913807E-4
2.635286980E0,1.450762269E-3,1.756185899E-3,1.145338640E-3
2.637723073E0,2.290677221E-4,1.756185899E-3,5.344913807E-4
2.640159219E0,-3.817795368E-4,1.145338640E-3,-7.635590737E-5
2.642595313E0,1.450762269E-3,-7.635590737E-5,-7.635590737E-5
2.645031459E0,8.399150101E-4,5.344913807E-4,-7.635590737E-5
2.647467605E0,1.450762269E-3,-1.298050396E-3,-6.872031372E-4
2.649903698E0,1.450762269E-3,5.344913807E-4,1.145338640E-3
2.652339844E0,1.450762269E-3,2.367033157E-3,-6.872031372E-4
2.654775938E0,8.399150101E-4,1.145338640E-3,-6.872031372E-4
2.657212084E0,-3.817795368E-4,-7.635590737E-5,-6.872031372E-4
2.659648178E0,2.290677221E-4,2.367033157E-3,5.344913807E-4
2.662084323E0,2.290677221E-4,-7.635590737E-5,-7.635590737E-5
2.664520417E0,2.290677221E-4,5.344913807E-4,-7.635590737E-5
2.666956563E0,2.290677221E-4,5.344913807E-4,-6.872031372E-4
2.669392709E0,-9.926267667E-4,5.344913807E-4,1.756185899E-3
2.671828803E0,-9.926267667E-4,-1.298050396E-3,-7.635590737E-5
2.674264948E0,-3.817795368E-4,-6.872031372E-4,-6.872031372E-4
2.676701042E0,-3.817795368E-4,5.344913807E-4,-6.872031372E-4
2.679137188E0,8.399150101E-4,5.344913807E-4,-7.635590737E-5
2.681573282E0,1.450762269E-3,-1.298050396E-3,-6.872031372E-4
2.684009428E0,-9.926267667E-4,5.344913807E-4,-7.635590737E-5
2.686445521E0,-2.214321401E-3,-1.298050396E-3,-7.635590737E-5
2.688881667E0,2.290677221E-4,-6.872031372E-4,-6.872031372E-4
2.691317813E0,1.450762269E-3,3.588727675E-3,-7.635590737E-5
2.693753907E0,-3.817795368E-4,5.344913807E-4,-1.298050396E-3
2.696190053E0,-3.817795368E-4,-1.298050396E-3,-1.298050396E-3
2.698626146E0,-3.817795368E-4,-6.872031372E-4,5.344913807E-4
2.701062292E0,-1.603474026E-3,-1.298050396E-3,5.344913807E-4
2.703498386E0,2.290677221E-4,5.344913807E-4,-7.635590737E-5
2.705934532E0,-2.214321401E-3,-2.519744914E-3,-7.635590737E-5
2.708370678E0,-1.603474026E-3,-6.872031372E-4,1.145338640E-3
2.710806771E0,-2.214321401E-3,-6.872031372E-4,-7.635590737E-5
2.713242917E0,2.290677221E-4,1.145338640E-3,-1.298050396E-3
2.715679011E0,2.290677221E-4,5.344913807E-4,-7.635590737E-5
2.718115157E0,8.399150101E-4,5.344913807E-4,-7.635590737E-5
2.720551251E0,2.290677221E-4,-6.872031372E-4,-7.635590737E-5
2.722987396E0,1.450762269E-3,-7.635590737E-5,5.344913807E-4
2.725423490E0,2.061609412E-3,1.756185899E-3,-7.635590737E-5
2.727859636E0,2.290677221E-4,-1.298050396E-3,-7.635590737E-5
2.730295782E0,-3.817795368E-4,-1.298050396E-3,-7.635590737E-5
2.732731876E0,-3.817795368E-4,5.344913807E-4,1.145338640E-3
2.735168021E0,2.290677221E-4,5.344913807E-4,1.145338640E-3
2.737604115E0,8.399150101E-4,-6.872031372E-4,-7.635590737E-5
2.740040261E0,1.450762269E-3,2.977880416E-3,5.344913807E-4
2.742476355E0,1.450762269E-3,5.344913807E-4,1.756185899E-3
2.744912501E0,1.450762269E-3,2.367033157E-3,-7.635590737E-5
2.747348646E0,2.290677221E-4,-6.872031372E-4,-7.635590737E-5
2.749784740E0,8.399150101E-4,5.344913807E-4,-7.635590737E-5
2.752220886E0,2.061609412E-3,2.977880416E-3,-7.635590737E-5
2.754656980E0,1.450762269E-3,5.344913807E-4,-1.298050396E-3
2.757093126E0,-3.817795368E-4,-7.635590737E-5,-7.635590737E-5
2.759529219E0,-9.926267667E-4,-1.298050396E-3,-1.908897655E-3
2.761965365E0,2.290677221E-4,5.344913807E-4,-7.635590737E-5
2.764401459E0,8.399150101E-4,1.145338640E-3,5.344913807E-4
2.766837605E0,-9.926267667E-4,-6.872031372E-4,-7.635590737E-5
2.769273751E0,-3.817795368E-4,5.344913807E-4,-7.635590737E-5
2.771709844E0,-3.817795368E-4,1.145338640E-3,-6.872031372E-4
2.774145990E0,-2.214321401E-3,-1.908897655E-3,-7.635590737E-5
2.776582084E0,1.450762269E-3,1.756185899E-3,-7.635590737E-5
2.779018230E0,-9.926267667E-4,-6.872031372E-4,-7.635590737E-5
2.781454323E0,-9.926267667E-4,5.344913807E-4,1.145338640E-3
2.783890469E0,-3.817795368E-4,5.344913807E-4,-1.298050396E-3
2.786326563E0,2.290677221E-4,-7.635590737E-5,-7.635590737E-5
2.788762709E0,2.290677221E-4,-6.872031372E-4,-2.519744914E-3
2.791198803E0,8.399150101E-4,5.344913807E-4,-7.635590737E-5
2.793634948E0,8.399150101E-4,5.344913807E-4,-1.298050396E-3
2.796071094E0,2.290677221E-4,-7.635590737E-5,-7.635590737E-5
2.798507188E0,-3.817795368E-4,1.145338640E-3,-7.635590737E-5
2.800943334E0,2.290677221E-4,-6.872031372E-4,-6.872031372E-4
2.803379428E0,8.399150101E-4,2.367033157E-3,5.344913807E-4
2.805815573E0,8.399150101E-4,1.145338640E-3,-7.635590737E-5
2.808251667E0,2.061609412E-3,1.756185899E-3,-1.298050396E-3
2.810687813E0,8.399150101E-4,1.756185899E-3,-7.635590737E-5
2.813123959E0,2.290677221E-4,5.344913807E-4,1.145338640E-3
2.815560053E0,-9.926267667E-4,-1.298050396E-3,-6.872031372E-4
2.817996198E0,-3.817795368E-4,-7.635590737E-5,-6.872031372E-4
2.820432292E0,2.290677221E-4,2.367033157E-3,-7.635590737E-5
2.822868438E0,2.290677221E-4,-6.872031372E-4,-6.872031372E-4
2.825304532E0,2.290677221E-4,-7.635590737E-5,1.756185899E-3
2.827740678E0,2.290677221E-4,-7.635590737E-5,1.145338640E-3
2.830176823E0,-9.926267667E-4,-7.635590737E-5,5.344913807E-4
2.832612917E0,2.290677221E-4,5.344913807E-4,-6.872031372E-4
2.835049063E0,-3.817795368E-4,-6.872031372E-4,5.344913807E-4
2.837485157E0,-1.603474026E-3,-6.872031372E-4,-6.872031372E-4
2.839921303E0,-9.926267667E-4,-1.298050396E-3,-7.635590737E-5
2.842357396E0,2.061609412E-3,5.344913807E-4,-7.635590737E-5
2.844793542E0,8.399150101E-4,5.344913807E-4,5.344913807E-4
2.847229636E0,-1.603474026E-3,-6.872031372E-4,-7.635590737E-5
2.849665782E0,-9.926267667E-4,-6.872031372E-4,5.344913807E-4
2.852101876E0,-9.926267667E-4,-1.908897655E-3,-6.872031372E-4
2.854538021E0,-2.214321401E-3,-3.130592173E-3,-7.635590737E-5
2.856974167E0,-1.603474026E-3,-3.741439432E-3,-7.635590737E-5
2.859410261E0,8.399150101E-4,-7.635590737E-5,5.344913807E-4
2.861846407E0,-9.926267667E-4,5.344913807E-4,5.344913807E-4
2.864282501E0,-3.817795368E-4,-7.635590737E-5,-7.635590737E-5
2.866718646E0,2.290677221E-4,-6.872031372E-4,-7.635590737E-5
2.869154740E0,-3.817795368E-4,-7.635590737E-5,2.977880416E-3
2.871590886E0,8.399150101E-4,-7.635590737E-5,-6.872031372E-4
2.874027032E0,2.290677221E-4,-6.872031372E-4,-6.872031372E-4
2.876463126E0,-9.926267667E-4,-1.298050396E-3,-6.872031372E-4
2.878899271E0,-3.817795368E-4,-1.298050396E-3,1.145338640E-3
2.881335365E0,-9.926267667E-4,5.344913807E-4,5.344913807E-4
2.883771511E0,-3.817795368E-4,-6.872031372E-4,-7.635590737E-5
2.886207605E0,2.290677221E-4,1.145338640E-3,-6.872031372E-4
2.888643751E0,2.290677221E-4,-7.635590737E-5,1.145338640E-3
2.891079844E0,-9.926267667E-4,1.145338640E-3,1.756185899E-3
2.893515990E0,-9.926267667E-4,-3.130592173E-3,-7.635590737E-5
2.895952084E0,-9.926267667E-4,-1.908897655E-3,-7.635590737E-5
2.898388230E0,2.290677221E-4,-7.635590737E-5,-1.298050396E-3
2.900824376E0,2.290677221E-4,-7.635590737E-5,1.756185899E-3
2.903260469E0,-1.603474026E-3,-1.298050396E-3,5.344913807E-4
2.905696615E0,-9.926267667E-4,-1.298050396E-3,-7.635590737E-5
2.908132709E0,-1.603474026E-3,-1.908897655E-3,-1.298050396E-3
2.910568855E0,2.290677221E-4,-6.872031372E-4,-6.872031372E-4
2.913004948E0,8.399150101E-4,1.145338640E-3,-6.872031372E-4
2.915441094E0,-3.817795368E-4,-1.298050396E-3,5.344913807E-4
2.917877240E0,8.399150101E-4,-7.635590737E-5,1.145338640E-3
2.920313334E0,8.399150101E-4,-7.635590737E-5,-7.635590737E-5
2.922749480E0,8.399150101E-4,-7.635590737E-5,-6.872031372E-4
2.925185573E0,8.399150101E-4,2.977880416E-3,-6.872031372E-4
2.927621719E0,1.450762269E-3,1.756185899E-3,1.756185899E-3
2.930057813E0,2.290677221E-4,5.344913807E-4,5.344913807E-4
2.932493959E0,8.399150101E-4,1.145338640E-3,-6.872031372E-4
2.934930105E0,-3.817795368E-4,5.344913807E-4,-7.635590737E-5
2.937366198E0,-3.817795368E-4,-7.635590737E-5,-6.872031372E-4
2.939802292E0,-1.603474026E-3,-7.635590737E-5,-1.298050396E-3
2.942238438E0,8.399150101E-4,1.756185899E-3,5.344913807E-4
2.944674584E0,1.450762269E-3,2.367033157E-3,1.145338640E-3
2.947110678E0,1.450762269E-3,1.756185899E-3,-7.635590737E-5
2.949546823E0,-9.926267667E-4,-7.635590737E-5,5.344913807E-4
2.951982917E0,2.290677221E-4,-6.872031372E-4,1.756185899E-3
2.954419063E0,2.290677221E-4,5.344913807E-4,-6.872031372E-4
2.956855157E0,8.399150101E-4,5.344913807E-4,-6.872031372E-4
2.959291303E0,-3.817795368E-4,-6.872031372E-4,-7.635590737E-5
2.961727396E0,-9.926267667E-4,-1.298050396E-3,-6.872031372E-4
2.964163542E0,8.399150101E-4,5.344913807E-4,-1.298050396E-3
2.966599688E0,8.399150101E-4,-7.635590737E-5,5.344913807E-4
2.969035782E0,2.290677221E-4,1.145338640E-3,1.145338640E-3
2.971471928E0,2.290677221E-4,-1.908897655E-3,-7.635590737E-5
2.973908021E0,-1.603474026E-3,-2.519744914E-3,-6.872031372E-4
2.976344167E0,-3.817795368E-4,-1.298050396E-3,-6.872031372E-4
2.978780261E0,8.399150101E-4,1.756185899E-3,5.344913807E-4
2.981216407E0,-3.817795368E-4,-1.298050396E-3,5.344913807E-4
2.983652553E0,8.399150101E-4,5.344913807E-4,1.756185899E-3
2.986088646E0,2.290677221E-4,-7.635590737E-5,5.344913807E-4
2.988524792E0,-9.926267667E-4,-1.908897655E-3,-7.635590737E-5
2.990960886E0,-9.926267667E-4,-1.298050396E-3,-1.298050396E-3
2.993397032E0,1.450762269E-3,5.344913807E-4,-6.872031372E-4
2.995833126E0,1.450762269E-3,1.145338640E-3,5.344913807E-4
2.998269271E0,2.061609412E-3,1.145338640E-3,-1.298050396E-3
3.000705365E0,2.290677221E-4,5.344913807E-4,1.145338640E-3
3.003141511E0,-9.926267667E-4,-6.872031372E-4,5.344913807E-4
3.005577657E0,1.450762269E-3,2.367033157E-3,-7.635590737E-5
3.008013751E0,-3.817795368E-4,2.367033157E-3,-1.298050396E-3
3.010449896E0,1.450762269E-3,2.977880416E-3,-6.872031372E-4
3.012885990E0,1.450762269E-3,1.145338640E-3,1.145338640E-3
3.015322136E0,-3.817795368E-4,-7.635590737E-5,5.344913807E-4
3.017758230E0,-3.817795368E-4,5.344913807E-4,-6.872031372E-4
3.020194376E0,2.290677221E-4,5.344913807E-4,-7.635590737E-5
3.022630469E0,8.399150101E-4,2.367033157E-3,-6.872031372E-4
3.025066615E0,2.672456671E-3,2.367033157E-3,-6.872031372E-4
3.027502761E0,2.290677221E-4,1.145338640E-3,5.344913807E-4
3.029938855E0,-9.926267667E-4,5.344913807E-4,5.344913807E-4
3.032375001E0,8.399150101E-4,5.344913807E-4,-6.872031372E-4
3.034811094E0,2.290677221E-4,-6.872031372E-4,-7.635590737E-5
3.037247240E0,2.290677221E-4,-6.872031372E-4,2.977880416E-3
3.039683334E0,-9.926267667E-4,-1.298050396E-3,1.145338640E-3
3.042119480E0,-3.817795368E-4,-7.635590737E-5,-6.872031372E-4
3.044555573E0,8.399150101E-4,-7.635590737E-5,-1.298050396E-3
3.046991719E0,-3.817795368E-4,-6.872031372E-4,-7.635590737E-5
3.049427865E0,-3.817795368E-4,-1.298050396E-3,-7.635590737E-5
3.051863959E0,-3.817795368E-4,-7.635590737E-5,-6.872031372E-4
3.054300105E0,-3.817795368E-4,-7.635590737E-5,1.145338640E-3
3.056736198E0,-1.603474026E-3,-1.298050396E-3,-6.872031372E-4
3.059172344E0,-9.926267667E-4,-1.908897655E-3,5.344913807E-4
3.061608438E0,1.450762269E-3,1.756185899E-3,-6.872031372E-4
3.064044584E0,-1.603474026E-3,-1.908897655E-3,-7.635590737E-5
3.066480678E0,2.290677221E-4,-6.872031372E-4,-1.908897655E-3
3.068916823E0,1.450762269E-3,5.344913807E-4,-6.872031372E-4
3.071352969E0,-3.817795368E-4,5.344913807E-4,-7.635590737E-5
3.073789063E0,-3.817795368E-4,-1.298050396E-3,1.145338640E-3
3.076225209E0,-3.817795368E-4,-1.298050396E-3,1.145338640E-3
3.078661303E0,2.290677221E-4,-7.635590737E-5,5.344913807E-4
3.081097448E0,2.061609412E-3,5.344913807E-4,1.145338640E-3
3.083533542E0,2.290677221E-4,1.145338640E-3,1.145338640E-3
3.085969688E0,8.399150101E-4,5.344913807E-4,1.145338640E-3
3.088405782E0,2.290677221E-4,5.344913807E-4,-7.635590737E-5
3.090841928E0,-3.817795368E-4,-6.872031372E-4,-7.635590737E-5
3.093278073E0,-3.817795368E-4,-1.298050396E-3,-1.908897655E-3
3.095714167E0,-3.817795368E-4,-1.298050396E-3,-1.908897655E-3
3.098150313E0,-3.817795368E-4,-1.908897655E-3,1.145338640E-3
3.100586407E0,2.290677221E-4,-7.635590737E-5,-7.635590737E-5
3.103022553E0,1.450762269E-3,-6.872031372E-4,-7.635590737E-5
3.105458646E0,1.450762269E-3,1.145338640E-3,-7.635590737E-5
3.107894792E0,2.061609412E-3,2.977880416E-3,-7.635590737E-5
3.110330938E0,8.399150101E-4,2.977880416E-3,1.756185899E-3
3.112767032E0,2.290677221E-4,1.145338640E-3,5.344913807E-4
3.115203178E0,-9.926267667E-4,-7.635590737E-5,-6.872031372E-4
3.117639271E0,2.290677221E-4,5.344913807E-4,-1.298050396E-3
3.120075417E0,-9.926267667E-4,-6.872031372E-4,-6.872031372E-4
3.122511511E0,-3.817795368E-4,-1.298050396E-3,-7.635590737E-5
3.124947657E0,2.290677221E-4,-7.635590737E-5,5.344913807E-4
3.127383751E0,2.290677221E-4,-6.872031372E-4,-7.635590737E-5
3.129819896E0,-9.926267667E-4,5.344913807E-4,2.367033157E-3
3.132255990E0,-3.817795368E-4,-1.298050396E-3,5.344913807E-4
3.134692136E0,1.450762269E-3,-6.872031372E-4,-7.635590737E-5
3.137128282E0,-3.817795368E-4,-6.872031372E-4,1.145338640E-3
3.139564376E0,-9.926267667E-4,5.344913807E-4,-7.635590737E-5
3.142000521E0,8.399150101E-4,2.367033157E-3,-6.872031372E-4
3.144436615E0,-3.817795368E-4,-6.872031372E-4,-7.635590737E-5
3.146872761E0,8.399150101E-4,1.756185899E-3,5.344913807E-4
3.149308855E0,-9.926267667E-4,-7.635590737E-5,5.344913807E-4
3.151745001E0,8.399150101E-4,1.145338640E-3,5.344913807E-4
3.154181094E0,2.290677221E-4,5.344913807E-4,-6.872031372E-4
3.156617240E0,1.450762269E-3,-7.635590737E-5,-1.298050396E-3
3.159053386E0,2.061609412E-3,1.756185899E-3,-1.908897655E-3
3.161489480E0,2.061609412E-3,2.977880416E-3,5.344913807E-4
3.163925626E0,1.450762269E-3,2.367033157E-3,1.145338640E-3
3.166361719E0,2.290677221E-4,5.344913807E-4,5.344913807E-4
3.168797865E0,-3.817795368E-4,-6.872031372E-4,-6.872031372E-4
3.171233959E0,2.061609412E-3,-7.635590737E-5,-7.635590737E-5
3.173670105E0,2.061609412E-3,1.756185899E-3,-1.298050396E-3
3.176106198E0,8.399150101E-4,4.199574701E-3,-1.298050396E-3
3.178542344E0,2.061609412E-3,6.032116711E-3,-7.635590737E-5
3.180978438E0,2.672456671E-3,8.475505747E-3,5.344913807E-4
3.183414584E0,2.061609412E-3,6.032116711E-3,-7.635590737E-5
3.185850730E0,2.061609412E-3,5.421269219E-3,5.344913807E-4
3.188286823E0,2.061609412E-3,7.253811229E-3,-1.298050396E-3
3.190722969E0,2.061609412E-3,6.032116711E-3,-6.872031372E-4
3.193159063E0,1.450762269E-3,2.977880416E-3,-1.298050396E-3
3.195595209E0,2.290677221E-4,2.977880416E-3,5.344913807E-4
3.198031303E0,2.061609412E-3,5.421269219E-3,-6.872031372E-4
3.200467448E0,3.894151188E-3,7.253811229E-3,5.344913807E-4
3.202903542E0,2.061609412E-3,4.810422193E-3,-1.298050396E-3
3.205339688E0,2.061609412E-3,4.810422193E-3,-7.635590737E-5
3.207775834E0,8.399150101E-4,4.199574701E-3,1.145338640E-3
3.210211928E0,3.283303929E-3,4.199574701E-3,-7.635590737E-5
3.212648073E0,2.672456671E-3,7.253811229E-3,-6.872031372E-4
3.215084167E0,1.450762269E-3,4.810422193E-3,5.344913807E-4
3.217520313E0,-3.817795368E-4,1.756185899E-3,-6.872031372E-4
3.219956407E0,-3.817795368E-4,5.344913807E-4,5.344913807E-4
3.222392553E0,-9.926267667E-4,-6.872031372E-4,-7.635590737E-5
3.224828646E0,8.399150101E-4,5.344913807E-4,1.756185899E-3
3.227264792E0,2.672456671E-3,6.642963737E-3,5.344913807E-4
3.229700938E0,2.672456671E-3,4.810422193E-3,-7.635590737E-5
3.232137032E0,8.399150101E-4,5.421269219E-3,-7.635590737E-5
3.234573178E0,3.283303929E-3,7.253811229E-3,-7.635590737E-5
3.237009271E0,3.894151188E-3,7.864658721E-3,-7.635590737E-5
3.239445417E0,3.283303929E-3,8.475505747E-3,-7.635590737E-5
3.241881511E0,3.283303929E-3,7.253811229E-3,2.367033157E-3
3.244317657E0,2.061609412E-3,4.810422193E-3,5.344913807E-4
3.246753751E0,1.450762269E-3,4.199574701E-3,-7.635590737E-5
3.249189896E0,8.399150101E-4,2.367033157E-3,1.145338640E-3
3.251625990E0,3.283303929E-3,3.588727675E-3,1.145338640E-3
3.254062136E0,2.061609412E-3,4.199574701E-3,-7.635590737E-5
3.256498282E0,2.061609412E-3,3.588727675E-3,-7.635590737E-5
3.258934376E0,2.061609412E-3,4.199574701E-3,-1.298050396E-3
3.261370521E0,2.672456671E-3,6.642963737E-3,5.344913807E-4
3.263806615E0,3.894151188E-3,7.864658721E-3,-7.635590737E-5
3.266242761E0,4.504998680E-3,8.475505747E-3,-6.872031372E-4
3.268678855E0,4.504998680E-3,1.030804776E-2,-7.635590737E-5
3.271115001E0,5.726693198E-3,1.275143679E-2,5.344913807E-4
3.273551146E0,5.115845706E-3,1.152974181E-2,-6.872031372E-4
3.275987240E0,5.726693198E-3,1.030804776E-2,5.344913807E-4
3.278423386E0,3.894151188E-3,9.697199799E-3,5.344913807E-4
3.280859480E0,1.450762269E-3,5.421269219E-3,1.756185899E-3
3.283295626E0,-1.603474026E-3,-1.298050396E-3,-7.635590737E-5
3.285731719E0,-1.603474026E-3,-3.130592173E-3,-1.298050396E-3
3.288167865E0,-4.046862945E-3,-8.628217503E-3,-7.635590737E-5
3.290603959E0,-5.879404955E-3,-1.351499557E-2,1.145338640E-3
3.293040105E0,-8.322793990E-3,-1.656923257E-2,-7.635590737E-5
3.295476198E0,-1.015533600E-2,-1.962346770E-2,5.344913807E-4
3.297912344E0,-1.076618303E-2,-2.023431472E-2,-6.872031372E-4
3.300348490E0,-3.436015919E-3,-7.406522986E-3,5.344913807E-4
3.302784584E0,2.290677221E-4,3.588727675E-3,-7.635590737E-5
3.305220730E0,2.061609412E-3,3.588727675E-3,-6.872031372E-4
3.307656823E0,-2.825168660E-3,-6.184828468E-3,-1.298050396E-3
3.310092969E0,-7.101099472E-3,-1.351499557E-2,-1.908897655E-3
3.312529063E0,-7.711946499E-3,-1.290414855E-2,-6.872031372E-4
3.314965209E0,-2.825168660E-3,-6.184828468E-3,-1.298050396E-3
3.317401303E0,8.399150101E-4,2.367033157E-3,1.756185899E-3
3.319837448E0,8.399150101E-4,1.145338640E-3,-7.635590737E-5
3.322273542E0,-9.926267667E-4,-4.963133950E-3,-7.635590737E-5
3.324709688E0,-3.436015919E-3,-6.184828468E-3,1.756185899E-3
3.327145834E0,-1.603474026E-3,-4.963133950E-3,5.344913807E-4
3.329581928E0,2.290677221E-4,1.145338640E-3,-6.872031372E-4
3.332018073E0,2.290677221E-4,5.344913807E-4,-7.635590737E-5
3.334454167E0,2.290677221E-4,-1.908897655E-3,5.344913807E-4
3.336890313E0,-3.817795368E-4,-2.519744914E-3,1.145338640E-3
3.339326407E0,2.290677221E-4,-6.872031372E-4,1.145338640E-3
3.341762553E0,-3.817795368E-4,-7.635590737E-5,-7.635590737E-5
3.344198646E0,2.290677221E-4,5.344913807E-4,-6.872031372E-4
3.346634792E0,2.290677221E-4,-7.635590737E-5,-1.298050396E-3
3.349070938E0,2.290677221E-4,2.367033157E-3,5.344913807E-4
3.351507032E0,2.061609412E-3,2.977880416E-3,5.344913807E-4
3.353943178E0,8.399150101E-4,2.367033157E-3,5.344913807E-4
3.356379271E0,2.290677221E-4,-6.872031372E-4,5.344913807E-4
3.358815417E0,-3.817795368E-4,-1.908897655E-3,-7.635590737E-5
3.361251511E0,2.290677221E-4,-2.519744914E-3,5.344913807E-4
3.363687657E0,8.399150101E-4,-6.872031372E-4,-7.635590737E-5
3.366123751E0,-9.926267667E-4,-4.352286924E-3,-7.635590737E-5
3.368559896E0,-1.603474026E-3,-4.352286924E-3,-1.298050396E-3
3.370995990E0,-9.926267667E-4,-3.130592173E-3,-1.298050396E-3
3.373432136E0,2.290677221E-4,-1.908897655E-3,-6.872031372E-4
3.375868282E0,-3.817795368E-4,-2.519744914E-3,1.756185899E-3
3.378304376E0,-2.214321401E-3,-4.352286924E-3,-1.298050396E-3
3.380740521E0,-2.825168660E-3,-8.017370477E-3,-1.298050396E-3
3.383176615E0,-4.657710437E-3,-1.107160654E-2,-1.908897655E-3
3.385612761E0,-3.436015919E-3,-1.290414855E-2,-1.298050396E-3
3.388048855E0,-2.214321401E-3,-1.290414855E-2,-1.908897655E-3
3.390485001E0,-3.436015919E-3,-1.351499557E-2,-2.519744914E-3
3.392921094E0,-3.436015919E-3,-1.290414855E-2,-1.908897655E-3
3.395357240E0,-2.825168660E-3,-1.046075951E-2,-1.298050396E-3
3.397793334E0,-2.214321401E-3,-1.168245357E-2,-6.872031372E-4
3.400229480E0,-3.436015919E-3,-1.351499557E-2,-1.298050396E-3
3.402665626E0,-4.046862945E-3,-1.290414855E-2,-2.519744914E-3
3.405101719E0,-4.046862945E-3,-1.229330152E-2,5.344913807E-4
3.407537865E0,-1.603474026E-3,-1.046075951E-2,1.145338640E-3
3.409973959E0,-3.436015919E-3,-1.168245357E-2,2.977880416E-3
3.412410105E0,-4.657710437E-3,-8.628217503E-3,9.086352773E-3
3.414846198E0,-2.825168660E-3,1.091889478E-2,4.146125913E-2
3.417282344E0,2.061609412E-3,2.130329795E-2,5.367820337E-2
3.419718438E0,5.115845706E-3,1.145338640E-3,2.985516004E-2
3.422154584E0,-5.879404955E-3,-1.595838554E-2,8.475505747E-3
3.424590678E0,-1.015533600E-2,1.145338640E-3,-1.298050396E-3
3.427026823E0,-1.603474026E-3,1.030804776E-2,-6.184828468E-3
3.429462969E0,-1.137703005E-2,5.421269219E-3,1.145338640E-3
3.431899063E0,-1.809635013E-2,-1.901262067E-2,1.336228382E-2
3.434335209E0,-1.565296017E-2,-2.573194169E-2,2.374668792E-2
3.436771303E0,-9.544488043E-3,-6.184828468E-3,3.290939704E-2
3.439207448E0,-1.603474026E-3,-3.741439432E-3,5.123481527E-2
3.441643542E0,-7.711946499E-3,-2.389939874E-2,7.872293890E-2
3.444079688E0,-5.268557463E-3,-2.817532979E-2,9.582666308E-2
3.446515834E0,6.337540224E-3,-8.017370477E-3,1.037676781E-1
3.448951928E0,2.527380548E-2,-1.351499557E-2,1.086544544E-1
3.451388073E0,3.749075159E-2,-3.611634299E-2,1.208714023E-1
3.453824167E0,2.405211143E-2,-3.306210786E-2,1.471378356E-1
3.456260313E0,2.290677221E-4,6.642963737E-3,1.917296797E-1
3.458696407E0,-1.565296017E-2,3.229855001E-2,2.405974567E-1
3.461132553E0,-1.382041909E-2,-1.908897655E-3,2.912977934E-1
3.463568646E0,-2.725905925E-2,5.344913807E-4,3.511608243E-1
3.466004792E0,-2.825168660E-3,-3.245126083E-2,4.024719894E-1
3.468440938E0,1.244601328E-2,-9.849912487E-3,4.433987439E-1
3.470877032E0,3.077143058E-2,7.505785674E-2,4.623350203E-1
3.473313178E0,5.825955793E-2,1.410293579E-1,4.690543413E-1
3.475749271E0,8.941277117E-2,1.953947693E-1,4.629458785E-1
3.478185417E0,1.175117418E-1,2.436517030E-1,4.464530051E-1
3.480621511E0,1.376696974E-1,2.931303382E-1,4.250733256E-1
3.483057657E0,1.767639220E-1,3.236726820E-1,4.055262208E-1
3.485493751E0,1.541625708E-1,2.888543904E-1,3.725404739E-1
3.487929896E0,2.061609412E-3,1.758476496E-1,3.413872719E-1
3.490365990E0,-2.664821222E-2,1.269798726E-1,3.383330107E-1
3.492802136E0,2.405211143E-2,2.130329795E-2,3.462740481E-1
3.495238230E0,1.733279042E-2,-3.978142887E-2,3.291703165E-1
3.497674376E0,-4.008685052E-2,-2.519744914E-3,2.784699798E-1
3.500110521E0,-1.626380906E-2,7.253811229E-3,2.320456058E-1
3.502546615E0,2.893888950E-2,3.962871432E-2,1.856212169E-1
3.504982761E0,2.038702741E-2,6.650599837E-2,1.349208951E-1
3.507418855E0,4.504998680E-3,5.123481527E-2,1.031568274E-1
3.509855001E0,8.780929260E-3,3.718532622E-2,9.155073017E-2
3.512291094E0,5.726693198E-3,6.032116711E-3,9.155073017E-2
3.514727240E0,-7.101099472E-3,-1.229330152E-2,9.704835713E-2
3.517163334E0,-7.711946499E-3,-1.473669056E-2,1.019351333E-1
3.519599480E0,-2.825168660E-3,-1.168245357E-2,1.013242900E-1
3.522035626E0,-3.817795368E-4,-9.849912487E-3,1.049893722E-1
3.524471719E0,2.290677221E-4,-6.184828468E-3,1.098761484E-1
3.526907865E0,-3.436015919E-3,-1.107160654E-2,1.098761484E-1
3.529343959E0,-8.933641016E-3,-2.512109280E-2,1.074327603E-1
3.531780105E0,-8.322793990E-3,-4.650074616E-2,1.037676781E-1
3.534216198E0,-8.933641016E-3,-4.466820508E-2,9.888090193E-2
3.536652344E0,-8.933641016E-3,-3.978142887E-2,8.971819282E-2
3.539088438E0,-4.657710437E-3,-4.772244394E-2,8.116632700E-2
3.541524584E0,-4.657710437E-3,-5.566345528E-2,7.505785674E-2
3.543960678E0,-1.931804419E-2,-7.337802649E-2,7.017108053E-2
3.546396823E0,-2.725905925E-2,-9.170344472E-2,6.223006546E-2
3.548832969E0,-2.359397523E-2,-1.026986986E-1,4.756972939E-2
3.551269063E0,-2.603736520E-2,-1.289651245E-1,3.168770298E-2
3.553705209E0,-4.375193641E-2,-1.466796994E-1,1.824906096E-2
3.556141303E0,-6.452073902E-2,-1.705027372E-1,7.864658721E-3
3.558577448E0,-9.750649333E-2,-1.943257898E-1,2.367033157E-3
3.561013542E0,-1.353790164E-1,-2.480803430E-1,-3.130592173E-3
3.563449688E0,-1.585912257E-1,-3.274904788E-1,-1.412584260E-2
3.565885782E0,-1.720298529E-1,-4.105657041E-1,-2.573194169E-2
3.568321928E0,-1.818034202E-1,-4.673745036E-1,-3.855973482E-2
3.570758021E0,-8.162446320E-2,-4.014030099E-1,-7.887565345E-2
3.573194167E0,1.187334359E-1,-1.888281554E-1,-1.320193708E-1
3.575630313E0,1.132358089E-1,-2.474694997E-1,-1.424037665E-1
3.578066407E0,1.366770733E-2,-3.531460762E-1,-1.234675050E-1
3.580502553E0,-5.047125369E-2,-4.209501147E-1,-1.136939451E-1
3.582938646E0,1.305686031E-2,-3.610870838E-1,-1.387386769E-1
3.585374792E0,1.187334359E-1,-2.835094929E-1,-1.753895134E-1
3.587810886E0,1.443890184E-1,-3.329881132E-1,-1.931040883E-1
3.590247032E0,1.346154660E-1,-4.081223309E-1,-1.943257898E-1
3.592683126E0,1.413347870E-1,-4.142307937E-1,-1.998234093E-1
3.595119271E0,1.688229144E-1,-3.464267552E-1,-2.077644169E-1
3.597555365E0,1.749313772E-1,-2.822877765E-1,-2.053210288E-1
3.599991511E0,1.559951156E-1,-2.462477982E-1,-1.894390136E-1
3.602427657E0,1.303395331E-1,-2.034884989E-1,-1.717244387E-1
3.604863751E0,1.028514057E-1,-1.662268043E-1,-1.509556323E-1
3.607299896E0,7.414158434E-2,-1.118614078E-1,-1.259108931E-1
3.609735990E0,4.054498672E-2,-7.276718318E-2,-9.842276573E-2
3.612172136E0,-1.198787708E-2,-3.122956678E-2,-6.849125028E-2
3.614608230E0,-1.457634270E-1,9.827005118E-2,-1.290414855E-2
3.617044376E0,-2.056264579E-1,8.055548370E-2,2.924431302E-2
3.619480469E0,-1.811925620E-1,-1.063637808E-1,4.329380020E-2
3.621916615E0,-1.298813969E-1,-3.335989714E-1,3.718532622E-2
3.624352709E0,-1.030041203E-1,-3.922402859E-1,3.901786730E-2
3.626788855E0,-1.078908965E-1,-3.482593000E-1,5.428905040E-2
3.629225001E0,-1.182752997E-1,-3.598653972E-1,5.795413256E-2
3.631661094E0,-1.249946207E-1,-3.476484418E-1,5.795413256E-2
3.634097240E0,-1.329356283E-1,-2.957264185E-1,6.161921844E-2
3.636533334E0,-1.402658075E-1,-2.859528661E-1,5.734328553E-2
3.638969480E0,-1.457634270E-1,-2.682383060E-1,5.001311749E-2
3.641405573E0,-1.512610465E-1,-2.267006934E-1,4.451549426E-2
3.643841719E0,-1.506502032E-1,-2.126512080E-1,3.535278514E-2
3.646277813E0,-1.512610465E-1,-1.827196926E-1,2.802261710E-2
3.648713959E0,-1.524827480E-1,-1.717244387E-1,2.496838197E-2
3.651150105E0,-1.512610465E-1,-1.821088344E-1,1.458397787E-2
3.653586198E0,-1.506502032E-1,-1.692810506E-1,1.519482583E-2
3.656022344E0,-1.469851285E-1,-1.668376625E-1,1.152974181E-2
3.658458438E0,-1.433200389E-1,-1.595074832E-1,1.275143679E-2
3.660894584E0,-1.384332627E-1,-1.472905427E-1,1.214058883E-2
3.663330678E0,-1.249946207E-1,-1.417929232E-1,1.458397787E-2
3.665766823E0,-1.030041203E-1,-1.405712217E-1,1.091889478E-2
3.668202917E0,-8.956547827E-2,-1.271325797E-1,1.091889478E-2
3.670639063E0,-7.185091078E-2,-1.210241169E-1,1.214058883E-2
3.673075157E0,-5.841226876E-2,-1.106397063E-1,1.580567285E-2
3.675511303E0,-5.108210072E-2,-1.045312360E-1,1.885990985E-2
3.677947448E0,-4.191939160E-2,-1.075854748E-1,2.496838197E-2
3.680383542E0,-3.275668249E-2,-1.118614078E-1,2.802261710E-2
3.682819688E0,-2.481566928E-2,-1.179698780E-1,2.924431302E-2
3.685255782E0,-1.382041909E-2,-1.136939451E-1,2.924431302E-2
3.687691928E0,-2.825168660E-3,-1.088071689E-1,2.924431302E-2
3.690128021E0,8.170082234E-3,-1.039203927E-1,2.619007602E-2
3.692564167E0,1.611109637E-2,-9.659022093E-2,2.313583903E-2
3.695000261E0,2.954973653E-2,-8.803836256E-2,1.763821393E-2
3.697436407E0,4.115583375E-2,-8.070819080E-2,1.275143679E-2
3.699872501E0,5.215108395E-2,-8.070819080E-2,3.588727675E-3
3.702308646E0,6.253548712E-2,-8.559497446E-2,-4.352286924E-3
3.704744740E0,7.658497244E-2,-9.292513877E-2,-1.534753758E-2
3.707180886E0,8.880192041E-2,-9.842276573E-2,-2.206685767E-2
3.709617032E0,1.034622565E-1,-1.020878479E-1,-2.817532979E-2
3.712053126E0,1.156791970E-1,-1.051420867E-1,-3.428380191E-2
3.714489271E0,1.291178465E-1,-1.026986986E-1,-3.917058185E-2
3.716925365E0,1.419456303E-1,-1.002553031E-1,-4.100312293E-2
3.719361511E0,1.553842723E-1,-9.231429547E-2,-4.039227590E-2
3.721797605E0,1.688229144E-1,-8.254073560E-2,-3.733803704E-2
3.724233751E0,1.804290116E-1,-7.398887724E-2,-3.428380191E-2
3.726669844E0,1.914242655E-1,-6.849125028E-2,-3.306210786E-2
3.729105990E0,2.036412060E-1,-6.238277629E-2,-3.061871976E-2
3.731542084E0,2.170798481E-1,-6.177192926E-2,-3.061871976E-2
3.733978230E0,2.274642438E-1,-7.032378763E-2,-3.122956678E-2
3.736414376E0,2.384594977E-1,-8.559497446E-2,-3.489464894E-2
3.738850469E0,2.494547516E-1,-1.069746241E-1,-4.039227590E-2
3.741286615E0,2.592283189E-1,-1.356844455E-1,-4.650074616E-2
3.743722709E0,2.683910131E-1,-1.686701924E-1,-5.444176123E-2
3.746158855E0,2.787754238E-1,-2.077644169E-1,-6.543701142E-2
3.748594948E0,2.854947448E-1,-2.493020445E-1,-7.215633243E-2
3.751031094E0,2.946574390E-1,-2.883962691E-1,-8.376242965E-2
3.753467188E0,3.002314270E-1,-3.238253891E-1,-8.864920586E-2
3.755903334E0,3.051182032E-1,-3.537569046E-1,-9.536852688E-2
3.758339428E0,3.087832928E-1,-3.739148676E-1,-9.781191498E-2
3.760775573E0,3.136700690E-1,-3.812450469E-1,-9.964445978E-2
3.763211719E0,3.161134422E-1,-3.788016438E-1,-9.659022093E-2
3.765647813E0,3.185568452E-1,-3.665847182E-1,-9.597937763E-2
3.768083959E0,3.216110766E-1,-3.470376134E-1,-9.109259397E-2
3.770520053E0,3.252761662E-1,-3.207711577E-1,-8.681666851E-2
3.772956198E0,3.258870244E-1,-2.908396423E-1,-8.254073560E-2
3.775392292E0,3.295520842E-1,-2.572430372E-1,-7.765395939E-2
3.777828438E0,3.283303976E-1,-2.242573053E-1,-7.398887724E-2
3.780264532E0,3.295520842E-1,-1.900498569E-1,-6.788039953E-2
3.782700678E0,3.295520842E-1,-1.637834162E-1,-6.299362332E-2
3.785136771E0,3.283303976E-1,-1.405712217E-1,-5.871769413E-2
3.787572917E0,3.283303976E-1,-1.240783483E-1,-5.383091420E-2
3.790009011E0,3.277195692E-1,-1.198024154E-1,-4.955498502E-2
3.792445157E0,3.271087110E-1,-1.173590273E-1,-4.527905211E-2
3.794881303E0,3.234436214E-1,-1.179698780E-1,-3.672719002E-2
3.797317396E0,3.210002482E-1,-1.173590273E-1,-2.695363574E-2
3.799753542E0,3.173351586E-1,-1.222458109E-1,-8.628217503E-3
3.802189636E0,3.118375242E-1,-1.436254680E-1,1.580567285E-2
3.804625782E0,3.051182032E-1,-1.912715435E-1,4.146125913E-2
3.807061876E0,2.903815210E-1,-2.645732164E-1,6.711684167E-2
3.809498021E0,2.726669312E-1,-3.372640312E-1,9.338327497E-2
3.811934115E0,2.555632293E-1,-3.891860545E-1,1.263690293E-1
3.814370261E0,2.360161096E-1,-4.539358616E-1,1.575222313E-1
3.816806407E0,2.158581465E-1,-5.223507881E-1,1.856212169E-1
3.819242501E0,1.920351088E-1,-5.553365350E-1,2.112767994E-1
3.821678646E0,1.700446010E-1,-5.809921026E-1,2.393757701E-1
3.824114740E0,1.474432498E-1,-6.133670211E-1,2.619771063E-1
3.826550886E0,1.236202121E-1,-6.426876783E-1,2.809133828E-1
3.828986980E0,1.004080176E-1,-6.781167984E-1,2.937411666E-1
3.831423126E0,7.719582319E-2,-7.208760977E-1,2.967953980E-1
3.833859219E0,5.459447205E-2,-7.178218961E-1,3.047364354E-1
3.836295365E0,3.565821052E-2,-6.970530748E-1,3.138991296E-1
3.838731459E0,1.550024934E-2,-7.471425533E-1,3.145099878E-1
3.841167605E0,-5.879404955E-3,-8.039513230E-1,2.955737114E-1
3.843603698E0,-2.115058713E-2,-7.660788298E-1,2.888543904E-1
3.846039844E0,-3.520007432E-2,-7.306496501E-1,2.925194800E-1
3.848475990E0,-5.780142173E-2,-7.581378222E-1,2.894652486E-1
3.850912084E0,-8.590039611E-2,-9.077953696E-1,2.473167777E-1
3.853348230E0,-1.048366576E-1,-8.271635175E-1,2.008923888E-1
3.855784323E0,-1.115559787E-1,-6.854469776E-1,1.508029103E-1
3.858220469E0,-1.127776727E-1,-5.681642890E-1,9.765920788E-2
3.860656563E0,-1.078908965E-1,-4.502707720E-1,4.146125913E-2
3.863092709E0,-9.933903813E-2,-3.329881132E-1,-1.290414855E-2
3.865528803E0,-8.956547827E-2,-2.224247605E-1,-6.910209358E-2
3.867964948E0,-8.040276915E-2,-1.326302141E-1,-1.234675050E-1
3.870401042E0,-7.124006003E-2,-8.254073560E-2,-1.784437597E-1
3.872837188E0,-6.513158977E-2,-6.299362332E-2,-2.315874696E-1
3.875273334E0,-5.963396281E-2,-6.849125028E-2,-2.841203213E-1
3.877709428E0,-5.780142173E-2,-7.582141459E-2,-3.348970115E-1
3.880145573E0,-5.780142173E-2,-7.032378763E-2,-3.813214004E-1
3.882581667E0,-5.963396281E-2,-3.855973482E-2,-4.204156399E-1
3.885017813E0,-6.146650389E-2,2.374668792E-2,-4.521796703E-1
3.887453907E0,-6.329904497E-2,1.068219170E-1,-4.796678126E-1
3.889890053E0,-6.513158977E-2,1.911188364E-1,-5.041016936E-1
3.892326146E0,-7.062921673E-2,2.625879645E-1,-5.205945969E-1
3.894762292E0,-7.673768699E-2,3.138991296E-1,-5.370874405E-1
3.897198386E0,-7.857023180E-2,3.456631899E-1,-5.493044257E-1
3.899634532E0,-8.284615725E-2,3.609343767E-1,-5.633538961E-1
3.902070626E0,-8.773294091E-2,3.633777499E-1,-5.731274486E-1
3.904506771E0,-9.139802307E-2,3.627669215E-1,-5.853443742E-1
3.906942917E0,-9.567394853E-2,3.591018319E-1,-5.926745534E-1
3.909379011E0,-9.872818738E-2,3.584909737E-1,-6.006155610E-1
3.911815157E0,-1.042258143E-1,3.548259139E-1,-6.055023670E-1
3.914251251E0,-1.078908965E-1,3.554367423E-1,-6.091674566E-1
3.916687396E0,-1.109451354E-1,3.529933691E-1,-6.067240238E-1
3.919123490E0,-1.139993668E-1,3.542150557E-1,-6.030589342E-1
3.921559636E0,-1.170536056E-1,3.542150557E-1,-5.951179266E-1
3.923995730E0,-1.164427623E-1,3.523825109E-1,-5.829010010E-1
3.926431876E0,-1.182752997E-1,3.413872719E-1,-5.676298141E-1
3.928867969E0,-1.213295385E-1,3.212293088E-1,-5.468609929E-1
3.931304115E0,-1.249946207E-1,2.986279428E-1,-5.224271417E-1
3.933740261E0,-1.249946207E-1,2.766374648E-1,-4.949389994E-1
3.936176355E0,-1.274380088E-1,2.540360987E-1,-4.643966258E-1
3.938612501E0,-1.280488521E-1,2.320456058E-1,-4.301891923E-1
3.941048594E0,-1.280488521E-1,2.106659412E-1,-3.941491842E-1
3.943484740E0,-1.268271655E-1,1.880646050E-1,-3.568875194E-1
3.945920834E0,-1.262163222E-1,1.624090075E-1,-3.207711577E-1
3.948356980E0,-1.231620759E-1,1.373642832E-1,-2.810660899E-1
3.950793073E0,-1.194969937E-1,1.153737754E-1,-2.419718653E-1
3.953229219E0,-1.146102175E-1,9.460496902E-2,-2.004342526E-1
3.955665313E0,-1.085017473E-1,7.627955079E-2,-1.619508862E-1
3.958101459E0,-1.036149636E-1,6.345175952E-2,-1.191915721E-1
3.960537553E0,-9.872818738E-2,5.489989743E-2,-7.887565345E-2
3.962973698E0,-9.017632902E-2,5.123481527E-2,-3.855973482E-2
3.965409844E0,-8.406785131E-2,5.306735635E-2,-1.298050396E-3
3.967845938E0,-7.673768699E-2,5.734328553E-2,3.474193811E-2
3.970282084E0,-6.757497787E-2,6.589514762E-2,6.772769243E-2
3.972718178E0,-6.146650389E-2,7.200361788E-2,9.888090193E-2
3.975154323E0,-5.291464552E-2,8.360971510E-2,1.257581860E-1
3.977590417E0,-4.619532451E-2,9.704835713E-2,1.489703804E-1
3.980026563E0,-3.764346242E-2,1.129303873E-1,1.672957987E-1
3.982462657E0,-3.031329438E-2,1.257581860E-1,1.825669706E-1
3.984898803E0,-2.237228118E-2,1.367534250E-1,1.886754483E-1
3.987334948E0,-1.504211407E-2,1.440836042E-1,1.917296797E-1
3.989771042E0,-8.322793990E-3,1.495812237E-1,1.862320602E-1
3.992207188E0,-2.825168660E-3,1.544679999E-1,1.764585078E-1
3.994643282E0,5.115845706E-3,1.617981642E-1,1.617981642E-1
3.997079428E0,1.427855436E-2,1.703500301E-1,1.422510594E-1
3.999515521E0,2.099787444E-2,1.819561273E-1,1.208714023E-1
4.001951667E0,2.710634656E-2,1.978381574E-1,9.704835713E-2
4.004387761E0,3.260397166E-2,2.173852623E-1,7.017108053E-2
4.006823907E0,4.054498672E-2,2.387649268E-1,4.146125913E-2
4.009260001E0,4.543176666E-2,2.607554197E-1,1.458397787E-2
4.011696146E0,5.215108395E-2,2.809133828E-1,-1.351499557E-2
4.014132240E0,5.520532280E-2,2.949628830E-1,-4.039227590E-2
4.016568386E0,5.948125198E-2,3.016822040E-1,-6.910209358E-2
4.019004480E0,6.192464009E-2,3.010713458E-1,-9.292513877E-2
4.021440626E0,6.192464009E-2,2.912977934E-1,-1.149156392E-1
4.023876719E0,6.375718117E-2,2.754157484E-1,-1.356844455E-1
4.026312865E0,6.070294604E-2,2.540360987E-1,-1.533990204E-1
4.028749011E0,5.642701685E-2,2.271588296E-1,-1.662268043E-1
4.031185105E0,5.092938989E-2,2.015032321E-1,-1.790546030E-1
4.033621251E0,4.359922186E-2,1.727934182E-1,-1.851630807E-1
4.036057344E0,3.382566571E-2,1.477486789E-1,-1.894390136E-1
4.038493490E0,2.527380548E-2,1.220930964E-1,-1.900498569E-1
4.040929584E0,1.427855436E-2,9.765920788E-2,-1.857739240E-1
4.043365730E0,1.450762269E-3,7.566870749E-2,-1.772220582E-1
4.045801823E0,-1.137703005E-2,5.978667364E-2,-1.686701924E-1
4.048237969E0,-2.420482226E-2,5.306735635E-2,-1.527881771E-1
4.050674063E0,-3.703261539E-2,4.818057641E-2,-1.399603784E-1
4.053110209E0,-5.047125369E-2,4.268295318E-2,-1.246891990E-1
4.055546355E0,-6.452073902E-2,3.718532622E-2,-1.081963181E-1
4.057982448E0,-7.673768699E-2,2.985516004E-2,-9.292513877E-2
4.060418594E0,-8.895463496E-2,2.191414498E-2,-7.826480269E-2
4.062854688E0,-1.023932695E-1,1.641651988E-2,-5.993938819E-2
4.065290834E0,-1.133885235E-1,1.030804776E-2,-4.711159319E-2
4.067726928E0,-1.274380088E-1,9.086352773E-3,-3.000787087E-2
4.070163073E0,-1.402658075E-1,7.864658721E-3,-1.656923257E-2
4.072599167E0,-1.555369794E-1,8.475505747E-3,-6.184828468E-3
4.075035313E0,-1.671430767E-1,1.336228382E-2,7.253811229E-3
4.077471407E0,-1.793600321E-1,2.008160390E-2,1.763821393E-2
4.079907553E0,-1.915769726E-1,2.619007602E-2,2.680092305E-2
4.082343646E0,-2.013505250E-1,3.474193811E-2,3.474193811E-2
4.084779792E0,-2.123457789E-1,3.779617324E-2,4.390464723E-2
4.087215938E0,-2.245627195E-1,3.840702027E-2,5.306735635E-2
4.089652032E0,-2.355579734E-1,4.146125913E-2,6.039752439E-2
4.092088178E0,-2.441098392E-1,4.451549426E-2,6.833853573E-2
4.094524271E0,-2.538833916E-1,4.573718831E-2,7.872293890E-2
4.096960417E0,-2.624352574E-1,4.940227047E-2,8.666395396E-2
4.099396511E0,-2.715979517E-1,5.184566230E-2,9.582666308E-2
4.101832657E0,-2.777064443E-1,5.551074445E-2,1.031568274E-1
4.104268751E0,-2.832040489E-1,5.856497958E-2,1.098761484E-1
4.106704896E0,-2.874799967E-1,5.795413256E-2,1.165954694E-1
4.109140990E0,-2.917559147E-1,5.123481527E-2,1.208714023E-1
4.111577136E0,-2.923667729E-1,4.146125913E-2,1.245364845E-1
4.114013282E0,-2.935884595E-1,3.229855001E-2,1.288124174E-1
4.116449376E0,-2.954210043E-1,2.191414498E-2,1.282015741E-1
4.118885521E0,-2.948101461E-1,1.824906096E-2,1.269798726E-1
4.121321615E0,-2.941993177E-1,2.069245093E-2,1.275907159E-1
4.123757761E0,-2.917559147E-1,2.863346599E-2,1.263690293E-1
4.126193855E0,-2.911450863E-1,4.146125913E-2,1.214822456E-1
4.128630001E0,-2.868691385E-1,5.245650932E-2,1.147629321E-1
4.131066094E0,-2.819823623E-1,6.467345357E-2,1.074327603E-1
4.133502240E0,-2.807606757E-1,7.322531193E-2,9.888090193E-2
4.135938334E0,-2.734304965E-1,8.116632700E-2,8.360971510E-2
4.138374480E0,-2.691545784E-1,8.605311066E-2,6.833853573E-2
4.140810573E0,-2.630461156E-1,8.727480471E-2,5.367820337E-2
4.143246719E0,-2.563267946E-1,8.544225991E-2,3.535278514E-2
4.145682813E0,-2.483857721E-1,8.177717775E-2,1.641651988E-2
4.148118959E0,-2.398339063E-1,7.933378965E-2,-3.741439432E-3
4.150555053E0,-2.312820405E-1,7.444700599E-2,-2.389939874E-2
4.152991198E0,-2.239518762E-1,7.261446863E-2,-4.405735806E-2
4.155427344E0,-2.141783237E-1,7.444700599E-2,-6.360447407E-2
4.157863438E0,-2.056264579E-1,7.994463295E-2,-7.887565345E-2
4.160299584E0,-1.946312040E-1,8.849649876E-2,-9.292513877E-2
4.162735678E0,-1.830251068E-1,9.460496902E-2,-1.045312360E-1
4.165171823E0,-1.720298529E-1,9.704835713E-2,-1.130831018E-1
4.167607917E0,-1.610346138E-1,9.032903612E-2,-1.210241169E-1
4.170044063E0,-1.500393599E-1,8.299887180E-2,-1.259108931E-1
4.172480157E0,-1.366007179E-1,7.322531193E-2,-1.259108931E-1
4.174916303E0,-1.225512326E-1,6.100837141E-2,-1.259108931E-1
4.177352396E0,-1.115559787E-1,4.512634128E-2,-1.210241169E-1
4.179788542E0,-9.811734408E-2,3.168770298E-2,-1.136939451E-1
4.182224636E0,-8.773294091E-2,1.214058883E-2,-1.063637808E-1
4.184660782E0,-7.673768699E-2,1.145338640E-3,-9.292513877E-2
4.187096928E0,-6.268820167E-2,-2.519744914E-3,-7.765395939E-2
4.189533021E0,-4.986040667E-2,1.756185899E-3,-5.932854116E-2
4.191969167E0,-3.947600350E-2,1.091889478E-2,-3.855973482E-2
4.194405261E0,-2.542651631E-2,3.046600707E-2,-1.718007959E-2
4.196841407E0,-1.443126611E-2,4.573718831E-2,5.421269219E-3
4.199277501E0,-1.603474026E-3,6.161921844E-2,2.863346599E-2
4.201713646E0,9.391776286E-3,7.627955079E-2,5.123481527E-2
4.204149740E0,1.916533336E-2,8.605311066E-2,6.956022978E-2
4.206585886E0,2.954973653E-2,9.582666308E-2,8.788564801E-2
4.209021980E0,3.871244565E-2,1.062110662E-1,1.049893722E-1
4.211458126E0,4.665346071E-2,1.129303873E-1,1.190388575E-1
4.213894271E0,5.337277800E-2,1.190388575E-1,1.306449622E-1
4.216330365E0,5.703786388E-2,1.251473278E-1,1.404185146E-1
4.218766511E0,6.131379306E-2,1.312558055E-1,1.477486789E-1
4.221202605E0,6.620056927E-2,1.398076713E-1,1.526354551E-1
4.223638751E0,6.925480813E-2,1.459161341E-1,1.569113880E-1
4.226074844E0,7.291989028E-2,1.526354551E-1,1.569113880E-1
4.228510990E0,7.353074104E-2,1.563005447E-1,1.563005447E-1
4.230947084E0,7.291989028E-2,1.563005447E-1,1.556897014E-1
4.233383230E0,7.108735293E-2,1.538571566E-1,1.508029103E-1
4.235819323E0,7.047650218E-2,1.520246118E-1,1.434727460E-1
4.238255469E0,6.864395738E-2,1.501920670E-1,1.367534250E-1
4.240691563E0,6.864395738E-2,1.526354551E-1,1.282015741E-1
4.243127709E0,6.620056927E-2,1.532463133E-1,1.184280142E-1
4.245563855E0,6.314633787E-2,1.538571566E-1,1.092653051E-1
4.247999948E0,6.070294604E-2,1.544679999E-1,9.949174523E-2
4.250436042E0,6.070294604E-2,1.556897014E-1,9.032903612E-2
4.252872188E0,5.825955793E-2,1.508029103E-1,8.055548370E-2
4.255308334E0,5.520532280E-2,1.471378356E-1,7.017108053E-2
4.257744428E0,5.398362502E-2,1.416402012E-1,6.039752439E-2
4.260180573E0,5.154023692E-2,1.398076713E-1,5.245650932E-2
4.262616667E0,4.848600179E-2,1.416402012E-1,4.818057641E-2
4.265052813E0,4.421006888E-2,1.495812237E-1,4.329380020E-2
4.267488907E0,4.604261369E-2,1.581330895E-1,3.779617324E-2
4.269925053E0,4.237752780E-2,1.648524106E-1,3.535278514E-2
4.272361146E0,4.115583375E-2,1.691283286E-1,3.474193811E-2
4.274797292E0,4.421006888E-2,1.672957987E-1,3.229855001E-2
4.277233386E0,4.115583375E-2,1.544679999E-1,3.107685409E-2
4.279669532E0,4.237752780E-2,1.404185146E-1,2.985516004E-2
4.282105678E0,4.421006888E-2,1.275907159E-1,2.985516004E-2
4.284541771E0,4.787515476E-2,1.159846261E-1,3.107685409E-2
4.286977917E0,4.970769584E-2,1.049893722E-1,3.290939704E-2
4.289414011E0,5.398362502E-2,9.827005118E-2,3.474193811E-2
4.291850157E0,5.825955793E-2,9.582666308E-2,3.657447919E-2
4.294286251E0,6.192464009E-2,9.643751383E-2,4.207210615E-2
4.296722396E0,6.436803192E-2,9.582666308E-2,4.512634128E-2
4.299158490E0,7.047650218E-2,9.888090193E-2,4.818057641E-2
4.301594636E0,7.841751724E-2,1.001025960E-1,5.612159148E-2
4.304030730E0,8.086090535E-2,9.888090193E-2,6.161921844E-2
4.306466876E0,8.696937561E-2,1.031568274E-1,6.711684167E-2
4.308902969E0,9.246700257E-2,1.056002229E-1,7.689040154E-2
4.311339115E0,9.735377878E-2,1.074327603E-1,8.422056586E-2
4.313775261E0,9.857547283E-2,1.031568274E-1,9.399411827E-2
4.316211355E0,1.016297117E-1,9.888090193E-2,1.037676781E-1
4.318647501E0,1.034622565E-1,9.643751383E-2,1.141520813E-1
4.321083594E0,1.046839505E-1,9.704835713E-2,1.239256412E-1
4.323519740E0,1.065164879E-1,1.031568274E-1,1.367534250E-1
4.325955834E0,1.089598835E-1,1.135412306E-1,1.459161341E-1
4.328391980E0,1.089598835E-1,1.172063202E-1,1.538571566E-1
4.330828073E0,1.089598835E-1,1.165954694E-1,1.611873209E-1
4.333264219E0,1.101815775E-1,1.165954694E-1,1.666849405E-1
4.335700313E0,1.120141149E-1,1.129303873E-1,1.740151197E-1
4.338136459E0,1.132358089E-1,1.092653051E-1,1.758476496E-1
4.340572553E0,1.156791970E-1,1.110978425E-1,1.807344258E-1
4.343008698E0,1.169008911E-1,1.141520813E-1,1.825669706E-1
4.345444844E0,1.181225851E-1,1.208714023E-1,1.831778288E-1
4.347880938E0,1.181225851E-1,1.349208951E-1,1.837886721E-1
4.350317084E0,1.175117418E-1,1.550788432E-1,1.837886721E-1
4.352753178E0,1.175117418E-1,1.795127392E-1,1.831778288E-1
4.355189323E0,1.175117418E-1,2.082225531E-1,1.807344258E-1
4.357625417E0,1.169008911E-1,2.369323820E-1,1.795127392E-1
4.360061563E0,1.175117418E-1,2.711398304E-1,1.746259630E-1
4.362497657E0,1.156791970E-1,3.022930324E-1,1.679066420E-1
4.364933803E0,1.162900478E-1,3.316137195E-1,1.624090075E-1
4.367369896E0,1.132358089E-1,3.493282795E-1,1.526354551E-1
4.369806042E0,1.101815775E-1,3.603235185E-1,1.434727460E-1
4.372242136E0,1.101815775E-1,3.591018319E-1,1.343100369E-1
4.374678282E0,1.089598835E-1,3.450523317E-1,1.251473278E-1
4.377114428E0,1.065164879E-1,3.212293088E-1,1.184280142E-1
4.379550521E0,1.059056446E-1,2.931303382E-1,1.159846261E-1
4.381986615E0,1.052947938E-1,2.711398304E-1,1.159846261E-1
4.384422761E0,1.046839505E-1,2.589228749E-1,1.202605516E-1
4.386858907E0,1.046839505E-1,2.522035539E-1,1.263690293E-1
4.389295001E0,1.040730998E-1,2.473167777E-1,1.404185146E-1
4.391731146E0,1.046839505E-1,2.491493225E-1,1.563005447E-1
4.394167240E0,1.040730998E-1,2.515927255E-1,1.734042615E-1
4.396603386E0,1.040730998E-1,2.491493225E-1,1.941730678E-1
4.399039480E0,1.059056446E-1,2.393757701E-1,2.186069638E-1
4.401475626E0,1.083490327E-1,2.222720534E-1,2.442625463E-1
4.403911719E0,1.101815775E-1,1.966164559E-1,2.723615170E-1
4.406347865E0,1.095707268E-1,1.679066420E-1,2.998496592E-1
4.408783959E0,1.120141149E-1,1.428619027E-1,3.255052269E-1
4.411220105E0,1.114032716E-1,1.233147904E-1,3.548259139E-1
4.413656198E0,1.107924208E-1,1.074327603E-1,3.835357130E-1
4.416092344E0,1.095707268E-1,9.704835713E-2,4.085804522E-1
4.418528490E0,1.095707268E-1,9.032903612E-2,4.360685945E-1
4.420964584E0,1.095707268E-1,8.483141661E-2,4.617241621E-1
4.423400730E0,1.071273386E-1,7.750124484E-2,4.843255281E-1
4.425836823E0,1.016297117E-1,6.772769243E-2,5.069268942E-1
4.428272969E0,9.674293548E-2,5.978667364E-2,5.289173722E-1
4.430709063E0,9.368869662E-2,5.306735635E-2,5.441885591E-1
4.433145209E0,8.574768156E-2,4.573718831E-2,5.600705743E-1
4.435581303E0,8.086090535E-2,4.023956135E-2,5.704549551E-1
4.438017448E0,7.536327839E-2,4.146125913E-2,5.802285671E-1
4.440453542E0,6.925480813E-2,4.329380020E-2,5.832827687E-1
4.442889688E0,6.192464009E-2,4.756972939E-2,5.845044851E-1
4.445325782E0,5.520532280E-2,5.245650932E-2,5.814502239E-1
4.447761928E0,4.726430774E-2,6.039752439E-2,5.741200447E-1
4.450198073E0,4.115583375E-2,6.650599837E-2,5.612922907E-1
4.452634167E0,3.504735976E-2,6.956022978E-2,5.435777307E-1
4.455070313E0,3.077143058E-2,6.711684167E-2,5.197546482E-1
4.457506407E0,2.405211143E-2,5.795413256E-2,4.916556776E-1
4.459942553E0,1.855448633E-2,4.023956135E-2,4.629458785E-1
4.462378646E0,1.488940232E-2,1.458397787E-2,4.275167286E-1
4.464814792E0,9.391776286E-3,-1.534753758E-2,3.926984370E-1
4.467250886E0,4.504998680E-3,-4.894413799E-2,3.529933691E-1
4.469687032E0,2.672456671E-3,-8.192989230E-2,3.169533610E-1
4.472123126E0,2.290677221E-4,-1.124722511E-1,2.778591514E-1
4.474559271E0,-1.603474026E-3,-1.417929232E-1,2.418191582E-1
4.476995365E0,-4.046862945E-3,-1.625617296E-1,2.082225531E-1
4.479431511E0,-2.825168660E-3,-1.772220582E-1,1.789018959E-1
4.481867605E0,-2.214321401E-3,-1.808871478E-1,1.501920670E-1
4.484303751E0,-1.603474026E-3,-1.772220582E-1,1.251473278E-1
4.486739896E0,-4.046862945E-3,-1.723352820E-1,1.019351333E-1
4.489175990E0,-3.436015919E-3,-1.619508862E-1,8.422056586E-2
4.491612136E0,-2.214321401E-3,-1.509556323E-1,6.650599837E-2
4.494048230E0,-9.926267667E-4,-1.436254680E-1,5.306735635E-2
4.496484376E0,2.290677221E-4,-1.332410574E-1,4.268295318E-2
4.498920469E0,2.061609412E-3,-1.155264899E-1,3.290939704E-2
4.501356615E0,4.504998680E-3,-9.231429547E-2,2.557922900E-2
4.503792709E0,5.726693198E-3,-6.360447407E-2,2.191414498E-2
4.506228855E0,8.780929260E-3,-3.550549597E-2,1.641651988E-2
4.508664948E0,8.170082234E-3,-1.168245357E-2,1.641651988E-2
4.511101094E0,1.061347127E-2,5.421269219E-3,1.458397787E-2
4.513537188E0,1.000262424E-2,2.008160390E-2,1.702736691E-2
4.515973334E0,1.000262424E-2,3.229855001E-2,1.824906096E-2
4.518409480E0,1.061347127E-2,4.512634128E-2,2.191414498E-2
4.520845573E0,1.244601328E-2,5.734328553E-2,2.741177008E-2
4.523281667E0,1.183516532E-2,6.894938648E-2,3.657447919E-2
4.525717813E0,1.122431830E-2,7.872293890E-2,4.634803534E-2
4.528153959E0,1.183516532E-2,9.216158092E-2,5.795413256E-2
4.530590053E0,1.061347127E-2,1.037676781E-1,7.322531193E-2
4.533026198E0,8.170082234E-3,1.147629321E-1,8.727480471E-2
4.535462292E0,6.948387716E-3,1.306449622E-1,1.013242900E-1
4.537898438E0,6.948387716E-3,1.404185146E-1,1.172063202E-1
4.540334532E0,3.894151188E-3,1.422510594E-1,1.330883503E-1
4.542770678E0,8.399150101E-4,1.422510594E-1,1.514137685E-1
4.545206771E0,-5.879404955E-3,1.398076713E-1,1.685174853E-1
4.547642917E0,-1.382041909E-2,1.336991936E-1,1.850103587E-1
4.550079011E0,-2.053973824E-2,1.312558055E-1,2.039466351E-1
4.552515157E0,-3.092414327E-2,1.300341040E-1,2.234937400E-1
4.554951251E0,-4.558447748E-2,1.294232607E-1,2.448733896E-1
4.557387396E0,-5.719057471E-2,1.282015741E-1,2.638096511E-1
4.559823490E0,-7.185091078E-2,1.275907159E-1,2.845784724E-1
4.562259636E0,-8.834378421E-2,1.214822456E-1,3.029038906E-1
4.564695782E0,-1.030041203E-1,1.123195365E-1,3.230618536E-1
4.567131876E0,-1.231620759E-1,9.338327497E-2,3.419981003E-1
4.569568021E0,-1.433200389E-1,7.200361788E-2,3.615452349E-1
4.572004115E0,-1.634780020E-1,5.001311749E-2,3.804814816E-1
4.574440261E0,-1.818034202E-1,2.985516004E-2,4.006394446E-1
4.576876355E0,-2.019613683E-1,1.030804776E-2,4.183540046E-1
4.579312501E0,-2.208976448E-1,-1.412584260E-2,4.385119677E-1
4.581748594E0,-2.398339063E-1,-3.917058185E-2,4.562265575E-1
4.584184740E0,-2.593810260E-1,-6.665870547E-2,4.745519757E-1
4.586620834E0,-2.752630413E-1,-9.414683282E-2,4.940990806E-1
4.589056980E0,-2.929776311E-1,-1.210241169E-1,5.130353570E-1
4.591493073E0,-3.076379597E-1,-1.442363113E-1,5.331932902E-1
4.593929219E0,-3.210766017E-1,-1.613400280E-1,5.496861935E-1
4.596365313E0,-3.326826990E-1,-1.723352820E-1,5.686224699E-1
4.598801459E0,-3.442887962E-1,-1.827196926E-1,5.832827687E-1
4.601237605E0,-3.534514904E-1,-1.961583197E-1,5.973322392E-1
4.603673698E0,-3.607816696E-1,-2.071535736E-1,6.095492244E-1
4.606109792E0,-3.644467592E-1,-2.169271260E-1,6.193227768E-1
4.608545938E0,-3.656684458E-1,-2.230356038E-1,6.254312396E-1
4.610982084E0,-3.656684458E-1,-2.248681486E-1,6.260420680E-1
4.613418178E0,-3.589491248E-1,-2.193705291E-1,6.260420680E-1
4.615854323E0,-3.540623486E-1,-2.157054394E-1,6.217661500E-1
4.618290417E0,-3.424562514E-1,-2.047101855E-1,6.150468588E-1
4.620726563E0,-3.308501542E-1,-1.937149316E-1,6.046624184E-1
4.623162657E0,-3.137464225E-1,-1.790546030E-1,5.930563211E-1
4.625598803E0,-2.966426909E-1,-1.613400280E-1,5.790068507E-1
4.628034896E0,-2.752630413E-1,-1.369061470E-1,5.661790371E-1
4.630471042E0,-2.496074587E-1,-1.088071689E-1,5.490753055E-1
4.632907136E0,-2.245627195E-1,-7.643226534E-2,5.319716334E-1
4.635343282E0,-1.970745921E-1,-4.894413799E-2,5.130353570E-1
4.637779376E0,-1.677539349E-1,-1.962346770E-2,4.947099090E-1
4.640215521E0,-1.378224194E-1,1.030804776E-2,4.776062071E-1
4.642651667E0,-1.054475084E-1,4.756972939E-2,4.605024755E-1
4.645087761E0,-7.429429889E-2,8.299887180E-2,4.421770573E-1
4.647523907E0,-4.130854458E-2,1.208714023E-1,4.262950420E-1
4.649960001E0,-6.490251981E-3,1.611873209E-1,4.098021686E-1
4.652396146E0,2.466295846E-2,1.911188364E-1,3.933092654E-1
4.654832240E0,5.215108395E-2,2.143310308E-1,3.780381083E-1
4.657268386E0,8.147175610E-2,2.314347625E-1,3.603235185E-1
4.659704480E0,1.071273386E-1,2.344889939E-1,3.432198167E-1
4.662140626E0,1.315612346E-1,2.302130610E-1,3.310028613E-1
4.664576719E0,1.529408842E-1,2.216611952E-1,3.169533610E-1
4.667012865E0,1.718771458E-1,2.155527323E-1,3.071798086E-1
4.669448959E0,1.877591759E-1,2.094442546E-1,3.004604876E-1
4.671885105E0,2.011978179E-1,2.057791650E-1,2.967953980E-1
4.674321198E0,2.128039151E-1,2.045574784E-1,2.943520248E-1
4.676757344E0,2.207449228E-1,1.978381574E-1,2.925194800E-1
4.679193490E0,2.280751020E-1,1.856212169E-1,2.931303382E-1
4.681629584E0,2.323510200E-1,1.752368063E-1,2.949628830E-1
4.684065730E0,2.354052663E-1,1.630198658E-1,2.961845696E-1
4.686501823E0,2.329618782E-1,1.465269923E-1,2.986279428E-1
4.688937969E0,2.311293334E-1,1.312558055E-1,3.035147190E-1
4.691374063E0,2.244100124E-1,1.129303873E-1,3.090123534E-1
4.693810209E0,2.176906914E-1,9.949174523E-2,3.175642192E-1
4.696246303E0,2.097496837E-1,8.788564801E-2,3.297811747E-1
4.698682448E0,1.999761164E-1,8.055548370E-2,3.432198167E-1
4.701118542E0,1.902025640E-1,7.750124484E-2,3.591018319E-1
4.703554688E0,1.779856235E-1,7.139277458E-2,3.762055635E-1
4.705990782E0,1.676012129E-1,6.711684167E-2,3.939201236E-1
4.708426928E0,1.553842723E-1,5.978667364E-2,4.159106314E-1
4.710863021E0,1.419456303E-1,5.001311749E-2,4.385119677E-1
4.713299167E0,1.297286898E-1,4.390464723E-2,4.617241621E-1
4.715735261E0,1.144575030E-1,4.023956135E-2,4.843255281E-1
4.718171407E0,9.979717433E-2,4.085041210E-2,5.087594390E-1
4.720607553E0,8.635853231E-2,5.062396824E-2,5.313607454E-1
4.723043646E0,7.291989028E-2,6.711684167E-2,5.551838279E-1
4.725479792E0,5.825955793E-2,8.727480471E-2,5.771743059E-1
4.727915886E0,4.726430774E-2,1.098761484E-1,5.973322392E-1
4.730352032E0,3.504735976E-2,1.324774921E-1,6.150468588E-1
4.732788126E0,2.283041552E-2,1.508029103E-1,6.321505308E-1
4.735224271E0,1.122431830E-2,1.703500301E-1,6.443675160E-1
4.737660365E0,3.894151188E-3,1.880646050E-1,6.553627253E-1
4.740096511E0,-1.603474026E-3,2.033357769E-1,6.645254493E-1
4.742532605E0,-7.101099472E-3,2.198286504E-1,6.706339121E-1
4.744968751E0,-1.320957206E-2,2.308239043E-1,6.749098897E-1
4.747404844E0,-1.626380906E-2,2.424300015E-1,6.755207181E-1
4.749840990E0,-1.870719716E-2,2.546469569E-1,6.785749197E-1
4.752277084E0,-1.992889121E-2,2.656421959E-1,6.797966361E-1
4.754713230E0,-1.809635013E-2,2.809133828E-1,6.804074645E-1
4.757149323E0,-1.748550311E-2,2.955737114E-1,6.797966361E-1
4.759585469E0,-1.504211407E-2,3.090123534E-1,6.804074645E-1
4.762021615E0,-1.259872504E-2,3.242835402E-1,6.791858077E-1
4.764457709E0,-1.015533600E-2,3.426089585E-1,6.767424345E-1
4.766893855E0,-7.711946499E-3,3.603235185E-1,6.724664569E-1
4.769329948E0,-6.490251981E-3,3.755947053E-1,6.706339121E-1
4.771766094E0,-7.101099472E-3,3.853682578E-1,6.651363373E-1
4.774202188E0,-7.711946499E-3,3.878116608E-1,6.596387029E-1
4.776638334E0,-8.933641016E-3,3.829248846E-1,6.523085237E-1
4.779074428E0,-1.015533600E-2,3.694862425E-1,6.462000608E-1
4.781510573E0,-1.198787708E-2,3.432198167E-1,6.364265084E-1
4.783946667E0,-1.382041909E-2,3.096232116E-1,6.303179860E-1
4.786382813E0,-1.748550311E-2,2.711398304E-1,6.229878664E-1
4.788818907E0,-1.992889121E-2,2.344889939E-1,6.187118888E-1
4.791255053E0,-2.053973824E-2,2.039466351E-1,6.132143140E-1
4.793691146E0,-2.176143415E-2,1.776801944E-1,6.113817692E-1
4.796127292E0,-2.420482226E-2,1.538571566E-1,6.095492244E-1
4.798563386E0,-2.725905925E-2,1.355317384E-1,6.107708812E-1
4.800999532E0,-3.153498843E-2,1.190388575E-1,6.138251424E-1
4.803435678E0,-3.581092134E-2,1.013242900E-1,6.150468588E-1
4.805871771E0,-3.947600350E-2,8.422056586E-2,6.199336052E-1
4.808307865E0,-4.191939160E-2,7.261446863E-2,6.272637844E-1
4.810744011E0,-4.497363046E-2,5.673243850E-2,6.370373368E-1
4.813180157E0,-5.169294775E-2,3.596363217E-2,6.486434340E-1
4.815616251E0,-5.841226876E-2,1.580567285E-2,6.602495313E-1
4.818052396E0,-6.390989572E-2,-7.406522986E-3,6.785749197E-1
4.820488490E0,-7.307260484E-2,-2.939702384E-2,6.969003677E-1
4.822924636E0,-8.406785131E-2,-4.772244394E-2,7.133932710E-1
4.825360730E0,-9.567394853E-2,-6.299362332E-2,7.359945774E-1
4.827796876E0,-1.054475084E-1,-6.910209358E-2,7.579851151E-1
4.830232969E0,-1.176644564E-1,-7.643226534E-2,7.836406827E-1
4.832669115E0,-1.323247850E-1,-8.376242965E-2,8.080745935E-1
4.835105209E0,-1.457634270E-1,-9.475768358E-2,8.361735344E-1
4.837541355E0,-1.598129123E-1,-1.075854748E-1,8.618291020E-1
4.839977448E0,-1.763057858E-1,-1.204132661E-1,8.880955577E-1
4.842413594E0,-1.915769726E-1,-1.265217364E-1,9.119185805E-1
4.844849740E0,-2.092915475E-1,-1.301868260E-1,9.345199466E-1
4.847285834E0,-2.257844210E-1,-1.289651245E-1,9.546779394E-1
4.849721928E0,-2.434989959E-1,-1.253000498E-1,9.699490666E-1
