"Time (s)","Linear Acceleration x (m/s^2)","Linear Acceleration y (m/s^2)","Linear Acceleration z (m/s^2)"
5.666593800E-2,0.000000000E0,0.000000000E0,0.000000000E0
6.153817800E-2,-3.607455641E-3,7.811095566E-3,7.183074951E-3
6.641041700E-2,-7.917657495E-4,5.179643631E-3,7.982254028E-4
7.128265700E-2,6.574615836E-3,-5.124166608E-3,5.086898804E-3
7.615489600E-2,1.485658437E-2,1.407430321E-2,2.154350281E-3
8.102718800E-2,7.451109588E-3,1.169357449E-2,-4.189491272E-3
8.589942800E-2,8.423201740E-3,4.894748330E-3,-6.669044495E-3
9.077166700E-2,8.427478373E-3,-1.246104389E-2,-1.107215881E-2
9.564390700E-2,-1.281985641E-2,-3.574255854E-3,6.118774414E-3
1.005161460E-1,-2.935193479E-3,-8.588653058E-3,-7.420539856E-3
1.053883860E-1,-4.818513989E-4,4.124794155E-3,8.716583252E-4
1.102606780E-1,6.120502949E-4,8.145514876E-3,-2.965927124E-4
1.151329170E-1,9.441956878E-3,8.507110178E-4,-2.484321594E-3
1.200051570E-1,-1.453714445E-2,-6.975509226E-3,3.251075745E-3
1.248773960E-1,-1.780539751E-4,-9.846400470E-3,9.737968445E-3
1.297496360E-1,8.793689311E-3,8.577294648E-4,-8.826255798E-3
1.346219280E-1,1.276572049E-2,-2.570368350E-3,-3.800392151E-3
1.394941670E-1,-8.324366063E-3,-1.253362745E-3,8.845329285E-3
1.443664070E-1,-5.649361759E-3,4.457376897E-3,-6.914138794E-4
1.492386460E-1,3.783084452E-3,1.329236105E-2,1.071548462E-2
1.541108860E-1,-9.464621544E-4,5.821026862E-3,-1.196861267E-3
1.589831780E-1,-1.004796848E-2,-1.685284078E-4,-4.570007324E-3
1.638554170E-1,4.125267267E-3,-1.618876308E-2,1.051330566E-2
1.687276570E-1,1.698039472E-3,-1.718271524E-3,-1.394271851E-3
1.735998960E-1,-4.104763269E-3,6.365701556E-4,-2.488136292E-3
1.784721360E-1,5.271725357E-3,2.364865318E-2,-2.392768860E-3
1.833444280E-1,2.739489079E-3,1.355320588E-2,-1.152992249E-3
1.882166670E-1,2.624079585E-3,1.193119958E-2,-2.264976501E-3
1.930889070E-1,-1.363635808E-2,1.384748891E-2,-1.030921936E-3
1.979611460E-1,3.043368459E-3,-2.812210470E-3,1.057529449E-2
2.028333860E-1,1.811720431E-3,1.914378256E-3,-1.177597046E-2
2.077056780E-1,-1.713030040E-3,1.114800945E-2,4.827499390E-3
2.125779170E-1,-3.971859813E-3,6.169233471E-3,-3.443717957E-3
2.174501570E-1,-7.315449417E-3,3.708779812E-3,-5.666732788E-3
2.223223960E-1,1.015700400E-3,1.293637231E-2,1.310157776E-2
2.271946360E-1,1.499199867E-2,1.489292830E-2,-1.227378845E-3
2.320669280E-1,-4.863217473E-4,-3.006476909E-3,-3.523826599E-3
2.369391670E-1,-1.678052545E-2,-7.572952658E-3,7.058143616E-3
2.418114070E-1,-8.232049644E-3,-3.877460957E-3,-7.119178772E-3
2.466836460E-1,8.352898061E-3,2.028696239E-3,-2.272605896E-3
2.515558860E-1,9.313419461E-3,-3.871992230E-3,-1.049041748E-3
2.564281780E-1,1.377666742E-2,-2.594709396E-3,2.480506897E-3
2.613004170E-1,-6.452508271E-3,9.756200016E-4,3.592491150E-3
2.661726570E-1,-3.883734345E-3,1.613495499E-2,-3.508567810E-3
2.710448960E-1,-2.893134952E-4,-6.508529186E-4,1.252174377E-3
2.759171360E-1,-1.201121509E-2,5.249433219E-3,-1.117706299E-3
2.807893760E-1,-5.901258439E-3,-1.010487229E-2,5.935668945E-3
2.856616670E-1,-5.882274359E-3,7.675327361E-3,1.125335693E-3
2.905339070E-1,-1.395937055E-2,4.002712667E-3,5.791664124E-3
2.954061460E-1,-7.832042873E-3,3.910094500E-3,1.740741730E-2
3.002783860E-1,-7.567144930E-3,8.486941457E-3,5.328178406E-3
3.051506260E-1,9.039811790E-3,-1.066058874E-3,-1.121044159E-2
3.100229170E-1,1.241776347E-2,-4.624441266E-3,-1.604080200E-3
3.148951570E-1,1.566599309E-2,-5.668506026E-3,-5.098342896E-3
3.197673960E-1,-5.748454481E-3,-7.928412408E-3,-7.355690002E-3
3.246396360E-1,2.623625100E-3,8.674763143E-3,-6.049156189E-3
3.295118760E-1,6.131164730E-3,-8.837431669E-4,5.817413330E-3
3.343841670E-1,1.316197217E-3,2.958774567E-4,4.540443420E-3
3.392564070E-1,-8.109606802E-3,-1.031181216E-2,-1.419067383E-3
3.441286460E-1,7.295884192E-3,5.135431886E-3,9.198188782E-3
3.490008860E-1,-3.524798900E-3,5.139820278E-3,-1.549720764E-3
3.538731260E-1,-2.322256565E-3,-1.028056443E-2,-2.702713013E-3
3.587453650E-1,-1.096554101E-3,-4.268005490E-3,-2.659797668E-3
3.636176570E-1,9.550876915E-3,6.406158209E-3,-1.439094543E-3
3.684898960E-1,-1.053525135E-2,1.537486911E-3,2.117156982E-3
3.733621360E-1,6.197996438E-3,8.546382189E-3,2.085685730E-3
3.782343760E-1,-4.452809691E-3,-1.280439273E-2,6.771087646E-3
3.831066150E-1,8.597470820E-3,9.752370417E-3,9.030342102E-3
3.879788550E-1,-4.463896155E-3,3.685750067E-3,-7.616996765E-3
3.928511460E-1,-9.123362601E-3,3.678575158E-3,-3.968238831E-3
3.977233860E-1,1.608960330E-3,-4.632383585E-3,-8.633613586E-3
4.025956260E-1,3.871537745E-3,3.769584000E-3,-1.087474823E-2
4.074678650E-1,-3.239966929E-3,4.871889949E-3,6.984710693E-3
4.123401570E-1,5.153141916E-3,7.126651704E-3,2.165794373E-3
4.172123960E-1,-5.577515811E-3,-1.655927300E-2,6.862640381E-3
4.220846360E-1,4.000708461E-3,-1.521580666E-2,-3.166198730E-4
4.269568760E-1,-1.890145242E-3,-7.955707610E-3,-9.763717651E-3
4.318291150E-1,-1.797363162E-3,-4.320580512E-3,9.965896606E-4
4.367014070E-1,-6.107017398E-4,-4.234701395E-3,-7.289886475E-3
4.415736460E-1,1.800842583E-3,8.794650435E-3,-1.074409485E-2
4.464458860E-1,-1.120080799E-2,-1.995667815E-3,-7.064819336E-3
4.513181260E-1,-1.637160778E-3,-9.034737945E-3,1.298904419E-3
4.561903650E-1,9.008117020E-3,-4.178538918E-3,3.647804260E-3
4.610626050E-1,2.968966961E-3,8.913114667E-3,-9.407043457E-3
4.659348960E-1,1.007150114E-2,1.475448906E-2,-4.563331604E-3
4.708071360E-1,9.921722114E-3,-8.097514510E-4,2.587318420E-3
4.756793760E-1,5.085356534E-3,-3.208063543E-3,-6.908416748E-3
4.805516150E-1,-5.612339824E-3,-3.212939948E-3,2.708435059E-4
4.854238550E-1,-4.397891462E-3,-1.027644426E-2,-2.099037170E-3
4.902961460E-1,5.117505789E-3,-4.255808890E-3,2.918243408E-4
4.951683860E-1,3.946416080E-3,-7.715199143E-3,-8.964538574E-4
5.000406260E-1,-5.571968853E-3,7.748566568E-3,-8.859634399E-4
5.049128650E-1,1.618802547E-3,1.117622852E-2,3.070831299E-4
5.097851050E-1,-8.138641715E-4,5.108878016E-3,3.051757812E-4
5.146573440E-1,7.511362433E-3,-7.971659303E-3,-3.252029419E-3
5.195296360E-1,3.933966160E-3,3.930293024E-3,-2.033233643E-3
5.244018760E-1,1.476794481E-3,1.479372382E-3,5.096435547E-3
5.292741150E-1,1.472853124E-3,-5.686119199E-3,2.675056458E-3
5.341463550E-1,2.550706267E-4,-4.470527172E-3,-9.202957153E-3
5.390185940E-1,6.102256477E-3,3.453791142E-4,9.851455688E-3
5.438908340E-1,-3.428697586E-3,-1.036611944E-2,1.686477661E-2
5.487631260E-1,7.255062461E-3,1.590542495E-3,-9.377479553E-3
5.536353650E-1,1.072267443E-2,-4.364065826E-3,-4.545211792E-3
5.585076050E-1,7.001586258E-3,-1.023320854E-2,-5.685806274E-3
5.633798440E-1,3.330908716E-3,5.373731256E-4,-9.189605713E-3
5.682520840E-1,1.753941923E-2,-1.012261957E-2,-1.265907288E-2
5.731243760E-1,-8.731618524E-3,4.219219089E-3,-1.254177094E-2
5.779966150E-1,1.153601706E-2,-2.991277725E-3,-1.751899719E-3
5.828688550E-1,7.667094469E-4,6.512284279E-3,5.380630493E-3
5.877410940E-1,-1.615963876E-3,-1.906026155E-3,5.331993103E-3
5.926133340E-1,1.021426171E-2,-5.430951715E-3,1.240158081E-2
5.974856260E-1,7.156804204E-4,1.723490655E-3,5.171775818E-3
6.023578650E-1,-1.637913287E-3,7.642604411E-3,7.499694824E-3
6.072301050E-1,-4.404559731E-4,-9.062960744E-3,9.806632996E-3
6.121023440E-1,-6.387803704E-3,-6.900019944E-4,-8.078575134E-3
6.169745840E-1,6.718106568E-3,1.830551773E-2,6.231307983E-3
6.218468230E-1,-2.779163420E-3,-1.037602127E-2,-2.129554749E-3
6.267191150E-1,1.974031329E-3,8.690059185E-3,-1.398086548E-2
6.315913550E-1,-1.563623548E-3,-1.043049246E-2,3.805160522E-4
6.364635940E-1,1.273447275E-2,-6.751220673E-3,2.752304077E-3
6.413358340E-1,-2.821676433E-3,-1.149903610E-2,2.729415894E-3
6.462080730E-1,1.946955919E-3,5.217730999E-3,2.706527710E-3
6.510803650E-1,4.330635071E-3,2.831131220E-3,-6.812095642E-3
6.559526050E-1,3.118522465E-3,-1.909535378E-3,2.741813660E-3
6.608248440E-1,-8.767150342E-3,-5.496211350E-3,1.102733612E-2
6.656970840E-1,-6.323408335E-3,-7.822372019E-3,-3.309249878E-3
6.705693230E-1,-2.712585032E-3,-6.474554539E-4,-4.467964172E-3
6.754415630E-1,-1.433871686E-3,2.069853246E-2,2.690315247E-3
6.803138550E-1,9.630993009E-4,-1.149353758E-2,7.417678833E-3
6.851860940E-1,4.527263343E-3,-1.497120410E-2,-2.140998840E-3
6.900583340E-1,-3.794498742E-3,2.976477146E-3,-2.122879028E-3
6.949305730E-1,-1.562265679E-2,1.124896109E-2,3.829956055E-3
6.998028130E-1,1.122832298E-3,8.783563972E-3,-9.517669678E-4
7.046751050E-1,2.340555191E-3,1.344642043E-2,-6.877899170E-3
7.095473440E-1,-2.401769161E-3,2.594925463E-3,-9.195327759E-3
7.144195840E-1,-3.601331264E-3,2.531930804E-3,1.566886902E-3
7.192918230E-1,1.188315451E-3,-2.279121429E-3,-2.007484436E-3
7.241640630E-1,-1.155555248E-3,-5.862809718E-3,7.506370544E-3
7.290363030E-1,-4.710230976E-3,1.353852451E-3,-2.053260803E-3
7.339085940E-1,4.734568298E-3,-2.099834383E-3,-1.865577698E-2
7.387808340E-1,-1.581758261E-4,-1.267680153E-2,1.355171204E-2
7.436530730E-1,1.645880193E-2,-1.374162734E-2,9.877204895E-3
7.485253130E-1,7.979534566E-3,1.370691508E-2,2.672195435E-3
7.533975530E-1,-3.997534513E-4,-5.398496985E-3,1.462936401E-3
7.582697920E-1,4.334174097E-3,-6.178319454E-4,-6.859779358E-3
7.631420840E-1,-2.726122737E-3,-5.387924612E-3,3.185272217E-4
7.680143230E-1,-1.572103426E-2,-1.724071428E-2,-5.619049072E-3
7.728865630E-1,-1.433372870E-2,-8.799955249E-3,-1.150798798E-2
7.777588030E-1,-1.181419194E-2,-1.645930111E-3,2.832412720E-3
7.826310420E-1,-1.283414662E-2,-7.521357387E-3,7.556915283E-3
7.875032820E-1,-4.392005503E-3,-5.111478269E-3,-8.163452148E-4
7.923755730E-1,-5.502391607E-3,-4.055052996E-4,5.125999451E-3
7.972478130E-1,-2.203530446E-2,1.141253114E-2,3.896713257E-3
8.021200530E-1,-5.166605115E-4,-2.925451845E-3,7.425308228E-3
8.069922920E-1,-1.702889800E-3,-6.408840418E-4,-1.044178009E-2
8.118645320E-1,1.608481258E-2,4.144079983E-3,-9.167671204E-3
8.167368230E-1,-3.046050668E-3,8.845709264E-3,4.053115845E-4
8.216090630E-1,1.236408949E-2,6.414756179E-3,-3.158569336E-3
8.264813030E-1,1.347342879E-2,7.536336780E-3,1.616477966E-3
8.313535420E-1,-9.304732084E-4,3.957763314E-3,4.148483276E-4
8.362257820E-1,1.462571323E-3,5.113944411E-3,2.785682678E-3
8.410980210E-1,-9.323857725E-3,-8.618533611E-4,2.763748169E-3
8.459703130E-1,-9.264327586E-3,-4.428029060E-3,-4.382133484E-3
8.508425530E-1,5.010835826E-3,1.703636348E-2,3.964424133E-3
8.557147920E-1,4.994921386E-3,1.570922136E-2,-9.126663208E-3
8.605870320E-1,-3.417842090E-3,2.537310123E-3,4.007339478E-3
8.654592710E-1,1.683980227E-4,2.474799752E-3,-4.335403442E-3
8.703315110E-1,1.394070685E-3,3.599986434E-3,-7.371902466E-4
8.752038030E-1,3.738895059E-3,-3.550551832E-3,7.576942444E-3
8.800760420E-1,1.085585356E-2,-1.202799380E-3,1.582431793E-2
8.849482820E-1,-8.216738701E-3,-1.803785563E-5,-3.300666809E-3
8.898205210E-1,4.891194403E-3,-5.965195596E-3,-9.209632874E-3
8.946927610E-1,-1.297338307E-2,4.770085216E-3,-3.196716309E-3
8.995650530E-1,-5.688216537E-3,9.495325387E-3,3.952026367E-3
9.044372920E-1,7.398828864E-3,-4.811786115E-3,2.731323242E-3
9.093095320E-1,-5.767468363E-3,-3.553580493E-3,1.576709747E-2
9.141817710E-1,-6.866395473E-3,-2.334710211E-3,-5.731582642E-3
9.190540110E-1,1.215160638E-2,-5.845345557E-3,-5.683898926E-3
9.239262510E-1,-8.104071021E-3,2.529300749E-3,-4.448890686E-3
9.287984900E-1,-3.378719091E-3,-1.021869481E-3,1.523971558E-3
9.336707820E-1,1.481287181E-3,-2.227175981E-3,3.885269165E-3
9.385430210E-1,-2.108892798E-2,-1.167398319E-2,2.908706665E-4
9.434152610E-1,-1.735571027E-2,-3.250181675E-3,-2.085685730E-3
9.482875010E-1,-1.125022769E-2,-1.388995349E-2,-1.631259918E-2
9.531597400E-1,4.359222949E-3,-7.909324020E-3,-1.024246216E-2
9.580320320E-1,7.894895971E-3,7.576517761E-3,-3.034591675E-3
9.629042710E-1,-1.714408398E-3,5.155846477E-3,1.123523712E-2
9.677765110E-1,1.886583865E-3,9.863466024E-3,1.646041870E-3
9.726487510E-1,-1.234836131E-2,2.660930157E-3,-1.929283142E-3
9.775209900E-1,7.650554180E-4,-9.054765105E-4,1.233100891E-2
9.823932300E-1,-2.733968198E-3,7.312729955E-3,7.480621338E-3
9.872655210E-1,-1.459990814E-2,4.879832268E-3,9.792327881E-3
9.921377610E-1,-3.797572106E-3,8.416630328E-3,2.136230469E-4
9.970100010E-1,2.224527299E-3,-2.349983901E-3,-6.910324097E-3
1.001882240E0,-1.089893281E-2,9.542621672E-3,-9.164810181E-4
1.006754480E0,-4.920039326E-3,1.424290985E-2,2.652168274E-3
1.011626771E0,-1.344829798E-4,2.226918936E-3,1.442909241E-3
1.016499011E0,-6.057590246E-3,-4.897467792E-3,2.616882324E-3
1.021371251E0,1.097261906E-3,-1.322187483E-3,-9.641647339E-4
1.026243490E0,-3.663551062E-3,-1.438140124E-2,-5.704879761E-3
1.031115730E0,-4.809044302E-3,-5.978882313E-3,3.838539124E-3
1.035987969E0,-5.959786475E-3,2.441011369E-3,-3.316879272E-3
1.040860261E0,-1.179710031E-3,-1.123934984E-3,7.394790649E-3
1.045732501E0,5.920164287E-3,1.313241571E-2,-2.162933350E-3
1.050604740E0,7.068775594E-3,1.182375848E-2,-9.574890137E-4
1.055476980E0,-1.015216112E-4,1.294353604E-2,-5.699157715E-3
1.060349219E0,-2.463862300E-3,-3.766559064E-3,-9.031295776E-4
1.065221459E0,-7.180474699E-3,-1.387968659E-3,3.852844238E-3
1.070093698E0,4.848174751E-3,3.345139325E-3,3.820419312E-3
1.074965990E0,1.257427037E-3,2.074494958E-3,-1.045608521E-2
1.079838230E0,1.435205340E-4,-8.667819202E-3,3.137588501E-4
1.084710469E0,7.304944098E-3,-6.248384714E-3,-4.436492920E-3
1.089582709E0,4.837527871E-3,-2.647515386E-3,1.535415649E-3
1.094454948E0,-3.515865654E-3,-1.097624004E-2,3.896713257E-3
1.099327240E0,-1.288488880E-2,-9.753674269E-3,-1.038169861E-2
1.104199480E0,-1.272290573E-2,8.121401072E-3,-3.171920776E-3
1.109071719E0,-1.736863703E-2,-7.317978889E-3,-6.707191467E-3
1.113943959E0,2.865783870E-3,-1.197405905E-2,1.658439636E-3
1.118816198E0,-9.075861424E-3,2.416364849E-3,-1.916885376E-3
1.123688438E0,1.694589853E-3,-1.423522830E-2,7.596015930E-3
1.128560730E0,-6.681084633E-4,7.238410413E-3,-7.781982422E-4
1.133432969E0,-6.367787719E-4,8.338131011E-3,-1.957893372E-3
1.138305209E0,1.003430784E-2,-8.333776146E-3,3.993988037E-3
1.143177448E0,8.759774268E-3,7.184721529E-3,-6.723403931E-3
1.148049688E0,3.978669643E-3,1.183167845E-2,-3.107070923E-3
1.152921928E0,-8.061528206E-4,1.410933584E-2,-6.641387939E-3
1.157794219E0,-1.265940070E-2,-4.998959601E-3,-6.494522095E-4
1.162666459E0,-3.133464605E-3,-6.098538637E-3,5.290031433E-3
1.167538698E0,1.710265875E-3,1.062214375E-3,7.620811462E-3
1.172410938E0,-5.400769413E-3,-4.879914224E-3,1.230525970E-2
1.177283178E0,-6.502553821E-3,7.004462183E-3,-1.153850555E-2
1.182155417E0,-4.868581891E-4,-4.966579378E-3,-7.572174072E-4
1.187027709E0,1.022635400E-2,-6.153538823E-3,4.348754883E-4
1.191899948E0,-5.279581994E-3,-8.517961949E-3,5.179405212E-3
1.196772188E0,1.883588731E-3,-1.084816456E-2,7.510185242E-3
1.201644428E0,1.367709786E-2,7.079578936E-3,9.821891785E-3
1.206516667E0,2.890504897E-3,1.058369875E-3,3.804206848E-3
1.211388907E0,-2.970870584E-3,1.296612620E-2,-9.765625000E-4
1.216261198E0,4.231236875E-3,-1.211212948E-2,-1.046466827E-2
1.221133438E0,5.306981504E-3,-6.059110165E-3,-4.442214966E-3
1.226005678E0,-7.798701525E-3,-4.804648459E-3,1.530647278E-3
1.230877917E0,1.817397773E-3,2.345599234E-3,-8.554458618E-4
1.235750157E0,5.287326872E-3,-3.577996045E-3,-8.487701416E-4
1.240622396E0,5.058422685E-4,7.137864828E-3,3.442764282E-4
1.245494688E0,-5.451634526E-3,-2.401590347E-3,8.650779724E-3
1.250366928E0,-5.893409252E-4,-4.767492414E-3,-3.291130066E-3
1.255239167E0,-2.976749092E-3,1.253545284E-3,-9.200096130E-3
1.260111407E0,5.909353495E-4,1.260183752E-3,-1.999855042E-3
1.264983646E0,-4.223637283E-3,7.201574743E-3,2.764701843E-3
1.269855886E0,-5.451291800E-3,-2.353124321E-3,-9.127616882E-3
1.274728178E0,-4.193399101E-3,4.747755826E-3,5.192756653E-3
1.279600417E0,7.781408727E-3,4.652313888E-3,-3.159523010E-3
1.284472657E0,1.612444967E-2,-8.471306413E-3,2.801895142E-3
1.289344896E0,-7.798507810E-3,-5.987286568E-5,7.527351379E-3
1.294217136E0,-6.140694022E-4,1.129418612E-3,5.089759827E-3
1.299089376E0,1.125841588E-2,1.067677885E-2,1.098155975E-2
1.303961667E0,-6.703138351E-3,-4.827357829E-3,-1.403713226E-2
1.308833907E0,1.597616076E-2,-1.189276949E-2,-2.050399780E-3
1.313706146E0,9.933143854E-3,-1.297845319E-2,1.221084595E-2
1.318578386E0,1.591275632E-2,-1.175343990E-2,-1.400661469E-2
1.323450626E0,-2.087861300E-3,1.566429436E-2,1.103878021E-2
1.328322865E0,2.420619130E-4,-8.205436170E-3,2.632141113E-4
1.333195105E0,1.481637359E-3,-9.292811155E-3,-9.260177612E-4
1.338067396E0,7.401004434E-3,-9.198471904E-3,5.016326904E-3
1.342939636E0,4.990756512E-3,-6.730951369E-3,6.161689758E-3
1.347811876E0,8.521355689E-3,-1.020476222E-2,9.672164917E-3
1.352684115E0,-9.257681668E-3,-4.240144044E-3,1.434040070E-2
1.357556355E0,-4.449941218E-3,5.889460444E-4,3.537178040E-3
1.362428594E0,-1.149483025E-2,1.801960170E-3,1.133918762E-3
1.367300886E0,-4.308912903E-3,3.019578755E-3,5.871772766E-3
1.372173126E0,8.839987218E-3,5.355671048E-3,1.175785065E-2
1.377045365E0,9.935595095E-3,5.502179265E-4,9.765625000E-4
1.381917605E0,-8.924007416E-4,-1.492769271E-2,2.156257629E-3
1.386789844E0,-8.739978075E-4,6.551802158E-3,-4.984855652E-3
1.391662084E0,-3.200579435E-3,-4.242543131E-3,4.553794861E-3
1.396534376E0,-1.932770014E-3,-5.435064435E-3,5.702972412E-3
1.401406615E0,1.475652307E-2,5.192235112E-4,1.040267944E-2
1.406278855E0,-3.146890551E-3,1.351673156E-2,7.942199707E-3
1.411151094E0,-4.282157868E-3,5.082257092E-3,4.315376282E-3
1.416023334E0,-6.745681167E-4,-4.425082356E-3,1.905441284E-3
1.420895573E0,8.853502572E-3,-7.976561785E-3,1.888275146E-3
1.425767865E0,1.697197556E-3,-1.624627411E-2,-1.688003540E-3
1.430640105E0,-1.881539822E-3,-1.020245254E-2,1.257133484E-2
1.435512344E0,1.692086458E-3,1.740798354E-3,-5.922317505E-4
1.440384584E0,-1.736249775E-2,5.562081933E-4,-6.522178650E-3
1.445256823E0,-5.336023867E-3,-5.352564156E-3,6.542205811E-4
1.450129063E0,2.985462546E-3,-8.852466941E-3,-5.286216736E-3
1.455001355E0,4.231125116E-3,-4.028022289E-3,-1.236629486E-2
1.459873594E0,1.373255253E-2,1.928597689E-3,1.982688904E-3
1.464745834E0,-8.940033615E-3,1.885965466E-3,-6.343841553E-3
1.469618073E0,-6.465993822E-3,-1.002715528E-2,1.626396179E-2
1.474490313E0,-2.854533494E-3,7.134079933E-4,9.006500244E-3
1.479362553E0,4.302747548E-3,1.734321564E-2,-5.655288696E-4
1.484234844E0,1.933127642E-3,6.458841264E-3,1.249790192E-2
1.489107084E0,-2.718582749E-3,-5.478039384E-3,4.082679749E-3
1.493979323E0,-2.962052822E-4,-6.646316499E-3,-6.635665894E-3
1.498851563E0,-1.103894413E-2,-4.141982645E-3,1.729965210E-3
1.503723803E0,-6.245590746E-3,-1.235680655E-2,-1.015663147E-2
1.508596042E0,-6.211243570E-3,-7.489111274E-3,-2.948760986E-3
1.513468282E0,-3.803219646E-3,-1.460194588E-3,-1.360797882E-2
1.518340573E0,3.376498818E-3,9.208798409E-3,-1.112079620E-2
1.523212813E0,2.362678200E-2,-1.937004179E-2,3.216743469E-3
1.528085053E0,1.390063018E-2,9.885281324E-4,9.125709534E-3
1.532957292E0,-2.300345525E-2,6.917849183E-3,-2.820968628E-3
1.537829532E0,-7.339514792E-3,6.833165884E-3,1.026153564E-2
1.542701771E0,6.977871060E-3,-8.624788374E-3,1.017379761E-2
1.547574011E0,-2.594579011E-3,-4.989780486E-3,5.941390991E-4
1.552446303E0,-1.331355423E-3,1.044248790E-2,-4.159927368E-3
1.557318542E0,3.497272730E-3,3.206089139E-3,-5.311012268E-3
1.562190782E0,3.406584263E-3,-6.300512701E-3,-7.641792297E-3
1.567063021E0,3.403872252E-3,-3.871761262E-3,-4.558563232E-4
1.571935261E0,-1.080024987E-2,-5.111493170E-3,1.379299164E-2
1.576807553E0,-4.447251558E-5,-1.459243521E-2,1.806259155E-3
1.581679792E0,7.060088217E-3,-7.374960929E-3,1.791954041E-3
1.586552032E0,-4.901990294E-3,1.041762531E-3,1.364803314E-2
1.591424271E0,-2.548538148E-3,-1.669823751E-2,2.850532532E-3
1.596296511E0,7.052764297E-3,-1.897441596E-2,-7.352828979E-4
1.601168751E0,5.788661540E-3,-8.101120591E-3,4.587173462E-4
1.606040990E0,5.765721202E-3,-9.086877108E-4,4.015922546E-3
1.610913230E0,9.318903089E-3,1.417234540E-3,-7.658004761E-4
1.615785521E0,1.000583172E-3,1.482218504E-4,-6.694793701E-3
1.620657761E0,2.219147980E-3,-4.555270076E-3,-9.014129639E-3
1.625530001E0,1.047776639E-2,-1.395372301E-2,-1.815795898E-3
1.630402240E0,4.422947764E-3,-1.993928105E-3,-6.549835205E-3
1.635274480E0,-5.157437176E-3,7.550414652E-3,8.936882019E-3
1.640146719E0,-2.860210836E-3,-6.711356342E-3,5.301475525E-3
1.645019011E0,1.140513271E-2,5.246449262E-3,-7.800102234E-3
1.649891251E0,1.605474949E-2,1.471621916E-2,-5.361557007E-3
1.654763490E0,1.599045843E-2,-2.052675933E-3,-1.006412506E-2
1.659635730E0,8.774861693E-3,3.872949630E-3,-4.844665527E-4
1.664507969E0,3.884881735E-4,-9.341910481E-4,-4.040718079E-3
1.669380209E0,-1.150347292E-2,7.399827242E-3,7.410049438E-4
1.674252501E0,9.956069291E-3,-1.275260374E-2,-1.641273499E-3
1.679124740E0,9.942516685E-3,-3.162350506E-3,-4.002571106E-3
1.683996980E0,6.295159459E-3,4.017494619E-3,-1.109123230E-2
1.688869219E0,7.440462708E-3,-1.919750124E-3,-3.147125244E-4
1.693741459E0,-4.452541471E-3,2.847112715E-3,2.061843872E-3
1.698613698E0,-1.986678690E-3,2.066072822E-2,2.043724060E-3
1.703485938E0,8.797474205E-3,1.096482947E-2,2.026557922E-3
1.708358230E0,-3.193497658E-3,1.448033750E-2,-1.104831696E-2
1.713230469E0,-3.213904798E-3,1.289524138E-3,-7.394790649E-3
1.718102709E0,-6.795547903E-3,-2.280063927E-3,-9.707450867E-3
1.722974948E0,3.984943032E-3,-4.676669836E-3,-8.439064026E-3
1.727847188E0,-7.420405746E-4,-1.180141419E-2,-1.074218750E-2
1.732719428E0,-7.847148925E-3,2.558439970E-3,7.153511047E-3
1.737591667E0,-2.993367612E-3,4.927974194E-3,-3.590583801E-3
1.742463959E0,1.486334950E-2,-1.057199761E-2,-2.372741699E-3
1.747336198E0,1.116037369E-2,-9.997226298E-4,-3.540992737E-3
1.752208438E0,9.920492768E-3,1.399368048E-3,3.611564636E-3
1.757080678E0,5.114905536E-3,-3.430802375E-3,1.189041138E-2
1.761952917E0,-2.068139613E-3,9.715870023E-3,-4.826545715E-3
1.766825157E0,-5.600892007E-3,1.548342407E-4,1.149177551E-3
1.771697448E0,8.629038930E-3,8.523426950E-3,-2.422332764E-3
1.776569688E0,3.703653812E-3,1.742020249E-4,7.094383240E-3
1.781441928E0,-1.407889649E-2,-1.055501401E-3,1.100540161E-3
1.786314167E0,-1.631014794E-2,1.300591975E-3,8.213043213E-3
1.791186407E0,1.122673601E-2,-5.888670683E-3,3.396987915E-3
1.796058646E0,-8.977938443E-3,2.457588911E-3,-3.753662109E-3
1.800930886E0,-4.158008844E-3,4.842203110E-3,1.026153564E-3
1.805803178E0,1.614072919E-2,-1.204118133E-3,5.764961243E-3
1.810675417E0,1.843554527E-2,-2.394050360E-3,-3.779411316E-3
1.815547657E0,1.590403169E-2,1.247674227E-3,-1.373291016E-3
1.820419896E0,9.905263782E-3,1.072154194E-2,3.385543823E-3
1.825292136E0,7.474243641E-3,1.152217388E-3,-1.207542419E-2
1.830164376E0,3.152638674E-4,7.021915168E-3,2.270698547E-3
1.835036615E0,-2.035759389E-3,6.950873882E-3,-6.058692932E-3
1.839908907E0,-9.159311652E-3,-6.177090108E-3,-7.247924805E-5
1.844781146E0,7.546916604E-3,1.049579680E-2,-3.633499146E-3
1.849653386E0,8.638516068E-3,-7.424529642E-3,-4.789352417E-3
1.854525626E0,7.433883846E-3,-3.726460040E-3,9.493827820E-3
1.859397865E0,1.461952925E-3,-6.067171693E-3,-1.269340515E-3
1.864270105E0,2.593323588E-4,1.058999822E-2,-6.007194519E-3
1.869142344E0,1.570009440E-2,-2.377070487E-4,-7.143974304E-3
1.874014636E0,1.323549449E-2,-3.838602453E-3,1.072120667E-2
1.878886876E0,-4.757151008E-3,-1.328630373E-2,-5.149841309E-5
1.883759115E0,-7.095128298E-3,-8.654221892E-5,1.136779785E-3
1.888631355E0,3.615260124E-3,5.851648748E-3,4.688262939E-3
1.893503594E0,3.581948578E-3,-8.411068469E-3,-9.918212891E-5
1.898375834E0,3.519780934E-3,5.905911326E-3,-1.671791077E-2
1.903248126E0,-7.167652249E-3,1.110590994E-3,-9.455680847E-3
1.908120365E0,-2.261728048E-3,-1.079596207E-2,2.491950989E-3
1.912992605E0,1.092761755E-2,-9.574811906E-3,4.845619202E-3
1.917864844E0,1.439431310E-2,1.827999949E-5,3.618240356E-3
1.922737084E0,5.961470306E-3,3.581445664E-3,5.961418152E-3
1.927609323E0,-1.301586628E-3,1.431043074E-2,1.164436340E-3
1.932481563E0,9.346097708E-3,-7.130604237E-3,-2.407073975E-3
1.937353855E0,8.048817515E-3,-3.478921950E-3,1.185798645E-2
1.942226094E0,1.152479649E-2,7.265161723E-3,1.076698303E-3
1.947098334E0,-1.617908478E-3,-1.418966427E-2,-1.305580139E-3
1.951970573E0,-4.208162427E-4,-5.745187402E-3,8.200645447E-3
1.956842813E0,-3.967661411E-3,-4.493337125E-3,-4.925727844E-3
1.961715053E0,-1.477256417E-3,6.157848984E-3,1.051902771E-3
1.966587292E0,-1.567000896E-2,-2.215027809E-3,-3.705024719E-3
1.971459584E0,-6.745010614E-5,8.445825428E-3,-2.487182617E-3
1.976331823E0,-3.500815481E-3,-8.299574256E-3,-1.433849335E-2
1.981204063E0,-1.014024019E-3,-9.487699717E-3,-1.659393311E-2
1.986076303E0,-5.786001682E-3,4.823543131E-3,-3.396987915E-3
1.990948542E0,9.647153318E-3,-9.444832802E-3,-1.524066925E-2
1.995820782E0,-4.725325853E-3,4.924699664E-3,-3.241539001E-3
2.000693021E0,-3.589633852E-3,2.569966018E-3,8.655548096E-3
2.005565313E0,3.573969007E-3,4.895664752E-3,9.771347046E-3
2.010437553E0,7.145851851E-3,-1.176236197E-2,4.940986633E-3
2.015309792E0,4.770606756E-5,-1.065786928E-3,3.712654114E-3
2.020182032E0,2.446934581E-3,6.067819893E-3,1.307487488E-3
2.025054271E0,7.760524750E-5,-2.304207534E-3,-7.013320923E-3
2.029926511E0,1.066939533E-2,-5.785297602E-3,4.916191101E-3
2.034798751E0,1.174976677E-2,2.438351512E-4,1.268386841E-4
2.039671042E0,6.885848939E-3,1.451763511E-2,-3.435134888E-3
2.044543282E0,7.910259068E-3,7.320147008E-3,4.902839661E-3
2.049415521E0,1.140219718E-2,-2.206314355E-3,-3.447532654E-3
2.054287761E0,-5.315050483E-3,1.444753259E-2,2.516746521E-3
2.059160001E0,-5.230754614E-3,1.071012393E-2,-1.174926758E-2
2.064032240E0,-1.462941989E-2,-4.837643355E-3,-3.342628479E-3
2.068904480E0,1.044606417E-2,2.327878028E-3,2.621650696E-3
2.073776771E0,-1.413181424E-3,-8.402414620E-3,6.159782410E-3
2.078649011E0,-3.662675619E-3,-9.590063244E-3,9.670257568E-3
2.083521251E0,-5.966491997E-3,-5.917407572E-3,6.028175354E-3
2.088393490E0,2.404257655E-3,3.630209714E-3,1.230239868E-3
2.093265730E0,-7.043235004E-3,-2.376779914E-3,-2.341270447E-3
2.098137969E0,1.321695745E-3,-5.858119577E-3,3.613471985E-3
2.103010209E0,-3.411676735E-3,2.472985536E-3,3.582954407E-3
2.107882448E0,1.405052841E-3,6.600096822E-5,3.553390503E-3
2.112754740E0,1.093012094E-2,-9.400010109E-3,4.710197449E-3
2.117626980E0,2.584233880E-3,7.343016565E-3,4.670143127E-3
2.122499219E0,6.105937064E-3,9.672679007E-3,1.070976257E-3
2.127371459E0,6.037160754E-3,-9.442575276E-3,-2.499580383E-3
2.132243698E0,-1.422599331E-2,-1.529697701E-2,1.082420349E-3
2.137115938E0,-8.146770298E-3,-1.162031665E-2,4.633903503E-3
2.141988230E0,2.851635218E-4,-1.149215922E-2,-9.651184082E-3
2.146860469E0,-1.034644246E-2,-4.271559417E-3,-3.634452820E-3
2.151732709E0,7.542423904E-3,-3.075737506E-3,7.080078125E-3
2.156604948E0,1.344069839E-2,-8.997995406E-3,-9.597778320E-3
2.161477188E0,-5.638830364E-3,1.733705401E-3,-1.070594788E-2
2.166349428E0,1.555904746E-3,-2.997521311E-3,3.628730774E-3
2.171221667E0,6.345674396E-3,-6.531387568E-3,8.345603943E-3
2.176093907E0,1.464239508E-2,8.971717209E-3,1.154899597E-3
2.180966198E0,2.675212920E-3,-1.740965992E-3,-4.291534424E-5
2.185838438E0,2.692647278E-3,7.714632899E-3,-4.291534424E-5
2.190710678E0,-3.268353641E-3,4.862435162E-4,2.330780029E-3
2.195582917E0,7.453598082E-3,5.276232958E-3,-4.810333252E-3
2.200455157E0,3.841139376E-3,-8.995722979E-3,1.165390015E-3
2.205327396E0,-9.865462780E-4,-4.184409976E-3,-7.154464722E-3
2.210199636E0,-9.674504399E-4,-7.780976593E-3,-1.158714294E-3
2.215071928E0,5.045026541E-3,-7.713846862E-3,2.410888672E-3
2.219944167E0,5.014143884E-3,-5.287837237E-3,5.952835083E-3
2.224816407E0,7.328063250E-3,-5.197554827E-3,9.465217590E-3
2.229688646E0,3.687888384E-3,-1.822447777E-2,4.637718201E-3
2.234560886E0,1.083420217E-2,-8.602865040E-3,1.528167725E-2
2.239433126E0,7.179051638E-3,-9.715862572E-3,8.031845093E-3
2.244305365E0,1.428186148E-2,1.056198031E-2,6.777763367E-3
2.249177605E0,1.064171642E-2,-1.467190683E-3,9.096145630E-3
2.254049896E0,-2.478919923E-3,-2.659857273E-4,3.085136414E-3
2.258922136E0,1.298476011E-2,-1.419615000E-3,1.873016357E-3
2.263794376E0,4.563562572E-3,9.685531259E-4,-8.826255798E-3
2.268666615E0,1.404742897E-2,5.696736276E-3,-1.629829407E-3
2.273538855E0,9.149394929E-3,-5.002975464E-3,4.318237305E-3
2.278411094E0,1.976110041E-3,9.619407356E-4,7.219314575E-4
2.283283334E0,1.927323639E-3,-2.166256309E-4,1.021099091E-2
2.288155626E0,-1.821437851E-2,-2.271570265E-4,7.752418518E-3
2.293027865E0,-3.806564957E-3,-2.522058785E-4,5.664825439E-4
2.297900105E0,-1.208773255E-2,5.687359720E-3,-3.000259399E-3
2.302772344E0,1.290933043E-2,-2.935007215E-4,5.333900452E-3
2.307644584E0,9.130239487E-4,-3.864604980E-3,1.728057861E-3
2.312516823E0,3.406785429E-3,-5.089882761E-3,-6.599426270E-4
2.317389063E0,6.964832544E-3,-8.606113493E-3,-3.027915955E-3
2.322261355E0,1.170997322E-2,-9.806685150E-3,-6.563186646E-3
2.327133594E0,-2.621166408E-3,-1.568747684E-2,-1.759529114E-3
2.332005834E0,-1.314342022E-3,8.129138499E-3,-2.932548523E-3
2.336878073E0,-1.248687506E-3,8.078001440E-3,-1.720428467E-3
2.341750313E0,-1.270964742E-3,1.276136935E-2,6.675720215E-4
2.346622553E0,-8.357148618E-3,5.491111428E-3,-6.461143494E-3
2.351494792E0,-4.715047777E-3,-9.999126196E-3,4.276275635E-3
2.356367032E0,4.846327007E-3,-4.169270396E-4,-5.083084106E-4
2.361239323E0,8.378215134E-3,-1.612856984E-3,4.244804382E-3
2.366111563E0,-1.208409667E-4,-1.106468216E-2,-5.286216736E-3
2.370983803E0,5.826503038E-3,-1.571848989E-2,-1.680374146E-3
2.375856042E0,1.026101410E-3,6.969191134E-3,1.893997192E-3
2.380728282E0,3.431797028E-3,-7.346104831E-3,1.877784729E-3
2.385600521E0,8.133590221E-3,-1.557778940E-2,5.423545837E-3
2.390472761E0,-6.138980389E-3,2.360325307E-3,-5.569458008E-4
2.395345001E0,-2.544760704E-3,-1.189146191E-3,8.944511414E-3
2.400217292E0,-3.786694258E-3,-8.255928755E-3,-1.487159729E-2
2.405089532E0,-7.363557816E-3,-1.052985340E-2,4.245758057E-3
2.409961771E0,-1.341156662E-3,1.564657688E-2,6.585121155E-3
2.414834011E0,-6.183099002E-3,1.910835505E-2,-1.777648926E-3
2.419706251E0,1.403060555E-2,4.706516862E-3,2.985000610E-3
2.424578490E0,2.068527043E-3,-1.294925809E-3,4.146575928E-3
2.429450730E0,-5.060106516E-3,-4.872206599E-3,4.112243652E-3
2.434323021E0,-1.489393413E-3,7.026996464E-3,5.265235901E-3
2.439195261E0,1.157744974E-2,8.085008711E-3,-4.275321960E-3
2.444067501E0,1.147733629E-2,-1.403979957E-3,-6.613731384E-3
2.448939740E0,-1.832810789E-2,1.524394378E-2,-6.709861755E-2
2.453811980E0,5.649752915E-3,1.514813676E-2,1.180553436E-2
2.458684219E0,-3.243071213E-2,-9.064000845E-2,8.649349213E-2
2.463556459E0,-2.150946856E-2,-5.182332546E-2,2.879238129E-2
2.468428698E0,1.552368701E-2,4.467659444E-2,-1.893043518E-2
2.473300938E0,1.780874282E-2,5.623510480E-2,2.277374268E-2
2.478173230E0,1.532629132E-2,2.727889270E-2,-5.220222473E-2
2.483045469E0,-2.683781087E-3,-2.274507284E-2,-2.921199799E-2
2.487917709E0,-1.434154809E-3,-3.443869948E-2,1.970005035E-2
2.492789948E0,9.193569422E-4,2.634779364E-2,-2.319812775E-2
2.497662188E0,1.998852938E-2,3.325286135E-2,1.260662079E-2
2.502534428E0,-3.908384591E-3,-1.091485471E-2,-1.745223999E-3
2.507406667E0,-1.505307853E-3,-1.797299460E-2,1.832008362E-3
2.512278959E0,6.769374013E-3,5.978915840E-3,5.377769470E-3
2.517151198E0,-8.824020624E-3,1.667293161E-2,1.771926880E-3
2.522023438E0,3.087751567E-3,2.719080448E-2,1.757621765E-3
2.526895678E0,1.138267666E-2,-5.070168525E-3,7.677078247E-3
2.531767917E0,1.773245633E-3,-6.154716015E-3,1.678466797E-3
2.536640157E0,1.243829727E-2,9.374670684E-3,5.225181580E-3
2.541512396E0,8.798837662E-3,9.298924357E-3,9.929656982E-3
2.546384636E0,-7.601156831E-4,-3.805048764E-3,-2.457714081E-2
2.551256928E0,-4.246052355E-3,-4.958033562E-3,-1.606369019E-2
2.556129167E0,4.037216306E-3,1.054657996E-2,-4.978179932E-4
2.561001407E0,7.634013891E-3,-3.784108907E-3,9.002685547E-3
2.565873646E0,-7.850594819E-3,1.070607454E-3,1.367473602E-2
2.570745886E0,-7.701687515E-3,-1.555496827E-2,-1.871109009E-3
2.575618126E0,1.141002774E-2,-1.902765408E-2,-6.694793701E-4
2.580490365E0,4.145562649E-3,-1.294614375E-2,-8.973121643E-3
2.585362605E0,2.078457177E-2,6.128169596E-3,5.346298218E-3
2.590234896E0,2.845272422E-3,2.503640950E-3,-5.381584167E-3
2.595107136E0,8.767716587E-3,1.312702894E-3,5.989074707E-4
2.599979376E0,1.102177054E-2,-5.833014846E-3,1.840019226E-2
2.604851615E0,7.423050702E-3,2.484034747E-3,1.627922058E-3
2.609723855E0,6.243519485E-3,-3.484655172E-3,-3.133773804E-3
2.614596094E0,2.626813948E-3,7.201205939E-3,-1.379203796E-2
2.619468334E0,9.825624526E-3,1.184802130E-2,-4.179954529E-3
2.624340626E0,2.603150904E-3,-1.788161695E-2,-7.705688477E-3
2.629212865E0,1.093088835E-2,-1.178033277E-2,-1.476383209E-2
2.634085105E0,-2.120114863E-3,-9.349092841E-3,-1.107883453E-2
2.638957344E0,-1.627828926E-2,-4.520602524E-3,-6.239891052E-3
2.643829584E0,1.117111742E-2,8.518993855E-3,6.870269775E-3
2.648701823E0,8.685797453E-3,2.442322671E-3,-2.682685852E-3
2.653574063E0,-7.993355393E-4,-5.943626165E-3,-1.215744019E-2
2.658446303E0,-5.486350507E-3,-1.420142129E-2,1.880741119E-2
2.663318542E0,-1.373909786E-2,1.083313674E-2,2.221202850E-2
2.668190834E0,6.456896663E-4,1.669513807E-2,3.033733368E-2
2.673063073E0,-1.127737015E-2,3.529340029E-3,1.821327209E-2
2.677935313E0,9.022541344E-3,3.487501293E-3,-2.348518372E-2
2.682807553E0,1.367774606E-2,4.633083940E-3,-1.023292542E-2
2.687679792E0,-5.476351827E-3,7.014278322E-3,-1.726913452E-2
2.692552032E0,5.351312459E-3,5.741704255E-3,-2.187538147E-2
2.697424271E0,-6.755813956E-4,-2.040515840E-2,-2.698898315E-3
2.702296511E0,-8.997548372E-3,1.066013053E-2,4.446029663E-3
2.707168803E0,-7.811732590E-3,2.846690640E-2,2.034187317E-3
2.712041042E0,-1.367076859E-2,1.284327358E-2,1.507568359E-2
2.716913282E0,-6.408825517E-3,8.386597037E-4,1.376247406E-2
2.721785521E0,-9.934712201E-3,-8.706193417E-3,1.602268219E-2
2.726657761E0,8.427947760E-4,8.070580661E-4,1.351451874E-2
2.731530001E0,4.378825426E-3,2.004306763E-3,1.577663422E-2
2.736402240E0,1.027406752E-2,4.335097969E-3,2.587318420E-3
2.741274480E0,5.523443222E-3,4.228945822E-3,1.087474823E-2
2.746146771E0,1.738825440E-2,4.152331501E-3,1.078414917E-2
2.751019011E0,4.269197583E-3,-1.888059080E-3,2.385139465E-3
2.755891251E0,1.870714128E-3,-1.020888239E-2,9.486198425E-3
2.760763490E0,1.837417483E-3,-1.129445806E-2,2.285957336E-3
2.765635730E0,7.768437266E-3,-6.449751556E-3,1.078605652E-3
2.770507969E0,-1.481051371E-2,-4.005238414E-3,-1.198768616E-2
2.775380209E0,-6.381042302E-3,3.167297691E-3,-7.139205933E-3
2.780252448E0,1.147460192E-2,6.748065352E-3,-8.266448975E-3
2.785124688E0,1.020314544E-2,9.067982435E-3,-1.175785065E-2
2.789996928E0,-2.942800522E-3,-5.314126611E-4,-1.640892029E-2
2.794869219E0,6.541833282E-4,2.556160092E-2,-1.627254486E-2
2.799741459E0,1.727890968E-2,1.229287311E-2,-1.613616943E-2
2.804613698E0,1.721848547E-2,7.400862873E-3,-1.837635040E-2
2.809485938E0,-1.370508596E-2,1.461394131E-4,-1.228809357E-2
2.814358178E0,-7.673576474E-3,-1.025345176E-3,3.246307373E-3
2.819230417E0,-9.929064661E-3,-8.137155324E-3,-2.716064453E-3
2.824102657E0,-2.742044628E-3,4.976335913E-3,7.990837097E-3
2.828974948E0,-6.284154952E-3,3.764793277E-3,1.029682159E-2
2.833847188E0,-3.861103207E-3,7.296826690E-3,-1.659393311E-3
2.838719428E0,-9.811218828E-3,-5.761615932E-3,3.104209900E-3
2.843591667E0,-8.516892791E-3,-8.158065379E-3,5.452156067E-3
2.848463907E0,6.953448057E-3,7.402241230E-3,-1.715660095E-3
2.853336146E0,-2.720616758E-3,-2.081338316E-3,-5.262374878E-3
2.858208386E0,-7.536910474E-3,3.888182342E-3,-1.352882385E-2
2.863080626E0,8.463785052E-4,-9.170707315E-3,-5.105018616E-3
2.867952865E0,-7.488638163E-3,4.049725831E-4,-6.249427795E-3
2.872825157E0,-5.069889128E-3,-4.373736680E-3,3.298759460E-3
2.877697396E0,1.509099454E-2,1.629400998E-3,3.271102905E-3
2.882569636E0,-1.657359302E-3,-1.141066477E-2,1.392650604E-2
2.887441876E0,-7.553428411E-3,-8.953664452E-3,6.689071655E-3
2.892314115E0,-6.350703537E-3,-1.476838440E-2,1.019287109E-2
2.897186355E0,-2.783406526E-3,-3.839097917E-4,8.921623230E-3
2.902058594E0,-7.541365921E-3,7.960420102E-3,-8.959770203E-3
2.906930834E0,-6.367325783E-3,4.392948002E-3,-2.948760986E-3
2.911803073E0,-8.677169681E-3,9.077593684E-3,-1.123428345E-2
2.916675365E0,9.168468416E-3,-1.000327989E-2,7.314682007E-4
2.921547605E0,7.791742682E-4,-2.838943154E-3,-5.210876465E-3
2.926419844E0,-7.424317300E-3,-1.683909446E-3,-9.916305542E-3
2.931292084E0,9.296678007E-3,1.864492893E-3,-1.458168030E-2
2.936164323E0,-1.213697344E-2,-2.882726490E-3,1.165485382E-2
2.941036563E0,9.371690452E-3,-1.655019820E-3,9.183883667E-3
2.945908803E0,9.391583502E-3,-1.711439341E-3,-3.900527954E-4
2.950781042E0,2.172537148E-3,1.968723908E-2,1.148414612E-2
2.955653282E0,1.048971713E-2,1.712199301E-2,-2.856254578E-3
2.960525521E0,3.232941031E-3,3.914088011E-4,5.476951599E-3
2.965397813E0,1.033958048E-2,-5.588680506E-3,6.837844849E-4
2.970270053E0,5.486965179E-3,8.690640330E-3,-2.883911133E-3
2.975142292E0,4.163771868E-3,-6.768189371E-3,7.019042969E-4
2.980014532E0,-7.730796933E-3,-1.384637132E-2,1.882553101E-3
2.984886771E0,-1.596520096E-2,6.422813982E-3,-2.882003784E-3
2.989759011E0,-4.760697484E-4,-4.268825054E-3,6.639480591E-3
2.994631251E0,7.550641894E-4,-4.303660244E-3,-4.099845886E-3
2.999503490E0,-2.772353590E-3,-4.323687404E-3,-7.627487183E-3
3.004375782E0,1.034856588E-2,5.196698010E-3,-4.002571106E-3
3.009248021E0,-1.480922103E-3,1.699699834E-2,1.964569092E-3
3.014120261E0,-5.004506558E-3,4.958052188E-3,7.884979248E-3
3.018992501E0,-6.124205887E-3,-9.326059371E-3,-4.051208496E-3
3.023864740E0,4.723377526E-3,-5.772240460E-3,-1.945018768E-2
3.028736980E0,-1.308218017E-2,-4.520162940E-3,-8.604049683E-3
3.033609219E0,-1.178945601E-2,-9.482204914E-4,5.712509155E-3
3.038481459E0,1.318752766E-4,-1.516783237E-2,-9.767532349E-3
3.043353698E0,3.688797355E-3,-9.118672460E-3,-3.749847412E-3
3.048225990E0,4.982203245E-5,9.967215359E-3,2.216339111E-3
3.053098230E0,1.232922077E-3,-9.092230350E-3,-1.362800598E-3
3.057970469E0,1.657853276E-2,-1.014326513E-2,4.583358765E-3
3.062842709E0,1.287578791E-2,5.375318229E-3,-2.031326294E-4
3.067714948E0,5.642950535E-3,5.404762924E-4,6.921768188E-3
3.072587188E0,1.032605022E-2,5.528740585E-4,5.676269531E-3
3.077459428E0,-4.037655890E-3,-1.013292372E-2,1.393890381E-2
3.082331667E0,6.719388068E-3,1.766752452E-3,7.886886597E-3
3.087203907E0,-6.369020790E-3,6.473675370E-3,-9.984016418E-3
3.092076198E0,-1.467221603E-2,-1.873370260E-3,-6.340026855E-3
3.096948438E0,-6.316401064E-3,4.094220698E-3,8.363723755E-4
3.101820678E0,4.401914775E-3,-1.916639507E-3,1.388645172E-2
3.106692917E0,9.021833539E-4,-3.172669560E-3,3.087997437E-3
3.111565157E0,-9.691189975E-3,-7.920991629E-3,3.061294556E-3
3.116437396E0,-1.078617573E-2,-1.496100053E-2,-2.899169922E-3
3.121309636E0,2.314597368E-3,-1.243104786E-2,5.434036255E-3
3.126181876E0,-7.219351828E-3,5.466420203E-3,-6.482124329E-3
3.131054115E0,-2.429328859E-3,-4.827976227E-4,7.816314697E-3
3.135926407E0,9.428977966E-3,7.804084569E-3,-2.931594849E-3
3.140798646E0,1.110114157E-3,8.928224444E-3,-4.094123840E-3
3.145670886E0,-3.621947020E-3,1.002866775E-2,-1.686096191E-3
3.150543126E0,1.661390811E-2,1.637950540E-3,-2.859115601E-3
3.155415365E0,8.177258074E-3,-1.978579909E-3,-1.826763153E-2
3.160287605E0,-8.752942085E-5,-1.630661264E-2,-8.618354797E-3
3.165159844E0,4.730358720E-3,5.155526102E-3,-1.329612732E-2
3.170032084E0,-7.197685540E-3,-2.051346004E-3,-1.793289185E-2
3.174904323E0,1.318465173E-2,1.213985309E-2,-2.134513855E-2
3.179776563E0,1.104552299E-2,1.429896802E-2,-2.710533142E-2
3.184648855E0,4.103340209E-3,5.770944059E-3,7.546424866E-3
3.189521094E0,-2.737071365E-3,2.061903477E-3,-8.296966553E-4
3.194393334E0,-9.694889188E-3,6.751567125E-3,2.054405212E-2
3.199265573E0,-2.190224826E-3,-1.362795383E-2,-4.555702209E-3
3.204137813E0,-1.942954957E-3,-1.005279273E-2,-3.333091736E-3
3.209010053E0,1.251772791E-2,-1.481656730E-2,5.003929138E-3
3.213882292E0,-3.574863076E-4,3.013581038E-3,3.774642944E-3
3.218754532E0,8.009620011E-3,8.940555155E-3,1.442718506E-2
3.223626771E0,5.564987659E-3,8.868508041E-3,6.103515625E-5
3.228499063E0,4.603844136E-3,-1.032696664E-2,4.808425903E-3
3.233371303E0,-1.175212115E-2,9.839907289E-3,-2.354621887E-3
3.238243542E0,5.353406072E-3,1.276351511E-3,9.534835815E-3
3.243115782E0,-5.088422447E-3,1.182135940E-2,1.182842255E-2
3.247988021E0,4.606641829E-3,6.918832660E-3,-1.420974731E-4
3.252860261E0,3.566276282E-3,-1.938275248E-2,-6.075859070E-3
3.257732501E0,-1.026257873E-3,2.046480775E-3,-9.059906006E-5
3.262604740E0,-1.859873533E-3,1.872003078E-3,1.177978516E-2
3.267476980E0,2.163577825E-3,6.389014423E-3,4.558563232E-3
3.272349271E0,7.471170276E-3,-4.607055336E-3,9.266853333E-3
3.277221511E0,7.884405553E-3,-3.611534834E-3,8.000373840E-3
3.282093751E0,1.981221139E-3,-1.782387868E-2,4.371643066E-3
3.286965990E0,-5.436882377E-3,8.572973311E-3,9.084701538E-3
3.291838230E0,-2.035158873E-2,5.276642740E-3,7.019042969E-4
3.296710469E0,-1.400680095E-2,-1.393899322E-3,4.259109497E-3
3.301582709E0,3.587635607E-2,-1.911351085E-2,-5.245208740E-4
3.306454948E0,1.090984792E-3,-2.131194249E-2,-7.642745972E-3
3.311327188E0,-6.667993963E-3,8.892811835E-3,3.278350830E-2
3.316199428E0,1.703837514E-2,-1.725108176E-2,-2.803134918E-2
3.321071667E0,-1.049689204E-2,7.009804249E-4,-2.867698669E-3
3.325943959E0,-2.365089953E-3,1.387166977E-2,1.021385193E-2
3.330816198E0,1.787506416E-2,-8.810758591E-3,-8.863449097E-3
3.335688438E0,8.124135435E-3,-4.253461957E-4,3.082275391E-3
3.340560678E0,1.041240990E-2,-2.416090667E-2,-6.440162659E-3
3.345432917E0,-3.466904163E-4,-3.791909665E-3,-9.947776794E-3
3.350305157E0,-3.777999431E-3,-2.628937364E-3,2.006530762E-3
3.355177396E0,8.164141327E-3,-1.094321907E-2,6.737709045E-3
3.360049636E0,8.684620261E-4,-2.540223300E-3,1.974105835E-2
3.364921876E0,1.928672194E-3,1.044355333E-3,8.893966675E-3
3.369794115E0,-3.013037145E-3,-1.278594136E-3,5.260467529E-3
3.374666407E0,2.842150629E-3,9.418115020E-3,1.655578613E-3
3.379538646E0,-2.002944052E-2,-5.974352360E-3,1.113891602E-2
3.384410886E0,-1.449646056E-2,6.136655807E-3,1.579761505E-2
3.389283126E0,-1.025456935E-2,3.843586892E-3,1.685523987E-2
3.394155365E0,-7.162682712E-3,-7.898136973E-4,1.315593719E-2
3.399027605E0,-5.327392370E-3,-7.773086429E-3,-7.129669189E-3
3.403899844E0,-9.442765266E-3,-3.951936960E-4,2.429008484E-3
3.408772084E0,-4.669021815E-2,9.142123163E-4,5.972862244E-3
3.413644323E0,-5.412638783E-1,5.094821379E-2,-4.393672943E-2
3.418516563E0,-2.899696350E0,-9.208494425E-2,-1.270866394E-2
3.423388803E0,-4.066520691E0,-4.731750190E-1,1.144132614E-1
3.428261094E0,-4.241182327E0,-2.967990339E-1,-7.053756714E-2
3.433133334E0,-4.002731323E0,-7.510616630E-2,5.112457275E-2
3.438005573E0,-3.214280844E0,5.076321587E-2,-2.741813660E-3
3.442877813E0,-2.543937206E0,1.752842069E-1,-1.470088959E-2
3.447750053E0,-1.393311262E0,4.155531898E-2,-1.468086243E-2
3.452622292E0,-1.056308523E-1,-2.457480319E-2,6.851196289E-3
3.457494532E0,1.506709337E0,-8.521077037E-2,3.194904327E-2
3.462366771E0,2.980684280E0,-2.264641523E-1,1.478452682E-1
3.467239063E0,4.079806805E0,-1.368591785E-1,-7.765769958E-3
3.472111303E0,5.000655174E0,-8.395193517E-2,-5.552387238E-2
3.476983542E0,4.690744400E0,-2.323678285E-1,-2.705116272E-1
3.481855782E0,4.148857117E0,-2.612207532E-1,2.667369843E-1
3.486728021E0,2.785298347E0,1.082260609E-1,5.748720169E-1
3.491600261E0,4.634066224E-1,2.119961977E-1,-8.125238419E-1
3.496472501E0,-7.648024559E-1,1.224693581E-1,-9.536743164E-2
3.501344740E0,-7.064907551E-1,-6.815237552E-2,2.263298035E-1
3.506216980E0,-9.250545502E-1,-1.392281353E-1,9.813594818E-2
3.511089219E0,-1.096077085E0,-1.988316327E-2,-1.219387054E-1
3.515961459E0,-1.030667424E0,1.631597430E-2,-1.157989502E-1
3.520833751E0,-8.002608418E-1,4.979382455E-2,7.561683655E-2
3.525705990E0,-7.123280168E-1,9.278450161E-2,5.279350281E-2
3.530578230E0,-7.310122848E-1,5.715873837E-2,-2.021694183E-2
3.535450469E0,-7.248721123E-1,7.180865854E-2,-5.607128143E-2
3.540322709E0,-6.032377481E-1,1.711128652E-1,1.161174774E-1
3.545194948E0,-7.808964849E-1,2.950843573E-1,5.016899109E-2
3.550067188E0,-1.031616688E0,2.946488261E-1,-8.383750916E-2
3.554939428E0,-9.469298124E-1,3.721337318E-1,-2.881145477E-2
3.559811667E0,-7.996093035E-1,5.134646297E-1,5.360031128E-2
3.564683907E0,-9.440693855E-1,5.613142848E-1,2.279033661E-1
3.569556146E0,-1.118946195E0,5.871742368E-1,8.761310577E-2
3.574428438E0,-8.719942570E-1,4.767649993E-2,2.429272652E0
3.579300678E0,-2.226943731E0,7.346545458E-1,-5.446672440E-1
3.584172917E0,-1.917702198E0,6.647338867E-1,2.904968262E-1
3.589045157E0,-2.152701855E0,9.021760225E-1,-2.322187424E-1
3.593917396E0,-2.348390341E0,1.161244512E0,-1.073348999E0
3.598789636E0,-1.925004363E0,1.157658339E0,-1.276165009E0
3.603661876E0,-1.536659002E0,1.154031754E0,-1.280294418E0
3.608534115E0,-1.044020772E0,1.064799190E0,-8.039112091E-1
3.613406355E0,-6.596322656E-1,9.344142675E-1,-2.147159576E-1
3.618278594E0,5.190682039E-2,8.623104692E-1,8.051815033E-1
3.623150834E0,3.086193651E-2,5.726457834E-1,3.136405945E0
3.628023126E0,-5.408318043E-1,6.526134014E-1,1.269464493E-1
3.632895365E0,-1.278752565E0,4.379710555E-1,-1.934938431E-1
3.637767605E0,-1.598721623E0,2.912376821E-1,-1.548776627E-1
3.642639844E0,-1.672832489E0,2.215857655E-1,-3.458538055E-1
3.647512084E0,-1.585815430E0,2.512856722E-1,-3.692255020E-1
3.652384323E0,-1.639902592E0,3.203439713E-1,-8.772087097E-2
3.657256563E0,-1.504440546E0,4.380428195E-1,-2.057743073E-2
3.662128803E0,-1.381421685E0,5.776545405E-1,1.480846405E-1
3.667001042E0,-1.183941483E0,7.225541472E-1,6.189689636E-1
3.671873282E0,-1.126928926E0,8.992434144E-1,5.345325470E-1
3.676745573E0,-1.146036625E0,1.054488659E0,3.414230347E-1
3.681617813E0,-1.092623830E0,1.134567499E0,3.900642395E-1
3.686490053E0,-9.853144288E-1,1.160962462E0,3.430061340E-1
3.691362292E0,-1.034227371E0,1.138523221E0,2.876405716E-1
3.696234532E0,-1.132523775E0,1.088696599E0,2.514686584E-1
3.701106771E0,-1.139775991E0,1.006790519E0,2.679491043E-1
3.705979011E0,-1.053175926E0,9.345242977E-1,2.904043198E-1
3.710851251E0,-9.610930085E-1,8.407344818E-1,2.745923996E-1
3.715723490E0,-8.642467856E-1,7.506005764E-1,2.349033356E-1
3.720595730E0,-8.003294468E-1,6.473605633E-1,1.869010925E-1
3.725467969E0,-8.086460829E-1,5.144306421E-1,1.485271454E-1
3.730340209E0,-9.109555483E-1,3.458412886E-1,1.341266632E-1
3.735212501E0,-1.074857950E0,1.704127192E-1,1.532526016E-1
3.740084740E0,-1.220293164E0,4.200041294E-2,1.090641022E-1
3.744956980E0,-1.385466933E0,-1.784425229E-2,4.948806763E-2
3.749829219E0,-1.433529496E0,3.036701679E-2,-1.347446442E-2
3.754701459E0,-1.450196505E0,1.998340636E-1,-1.407880783E-1
3.759573698E0,-1.340772510E0,4.200612307E-1,-3.945560455E-1
3.764445938E0,-1.175065398E0,6.432910562E-1,-7.220563889E-1
3.769318178E0,-1.034016967E0,8.408371210E-1,-1.062274933E0
3.774190417E0,-9.345204830E-1,9.889163971E-1,-1.299267769E0
3.779062657E0,-8.654282689E-1,1.057856441E0,-1.418850899E0
3.783934896E0,-8.703119755E-1,1.034672022E0,-1.440297127E0
3.788807136E0,-9.215686321E-1,9.314818382E-1,-1.318271637E0
3.793679428E0,-8.781207204E-1,7.759764194E-1,-1.182042122E0
3.798551667E0,-4.977326989E-1,5.409069061E-1,-1.074661255E0
3.803423907E0,1.655387282E-1,2.505421638E-1,-7.210626602E-1
3.808296146E0,3.062302768E-1,-6.676456332E-2,-6.884288788E-2
3.813168386E0,4.217427075E-1,-3.674922287E-1,6.507205963E-2
3.818040626E0,3.126261532E-1,-6.824477911E-1,2.504262924E-1
3.822912865E0,4.147649407E-1,-8.225544691E-1,-8.677482605E-2
3.827785105E0,3.092560768E-1,-8.895980120E-1,-2.213544846E-1
3.832657344E0,8.149707317E-2,-9.243874550E-1,-3.783130646E-1
3.837529584E0,1.754760742E-1,-6.056436300E-1,-9.641971588E-1
3.842401823E0,-2.895296812E-1,-7.265900373E-1,-6.058464050E-1
3.847274115E0,-5.983591080E-3,-2.611530423E-1,-1.166142464E0
3.852146355E0,-2.209230900E0,-4.636188149E-1,-8.624362946E-2
3.857018594E0,-2.658521652E0,-2.946947217E-1,-2.333104134E0
3.861890834E0,-2.351024389E0,-1.077839732E-2,-2.739075661E0
3.866763073E0,-1.968974948E0,3.097759485E-1,-3.197793007E0
3.871635313E0,-1.506929874E0,4.470369816E-1,-2.960454464E0
3.876507553E0,-9.843066931E-1,3.836698830E-1,-2.154340267E0
3.881379792E0,-5.032041669E-1,2.316069901E-1,-1.652976990E0
3.886252032E0,-2.261315584E-1,9.523868561E-2,-1.592612267E0
3.891124271E0,-7.316154242E-2,2.851018310E-2,-1.535257339E0
3.895996511E0,1.521402597E-2,1.845732331E-2,-1.161492348E0
3.900868751E0,7.396745682E-2,7.928460836E-2,-7.500305176E-1
3.905741042E0,8.479404449E-2,1.870403290E-1,-5.255718231E-1
3.910613282E0,7.389909029E-2,2.687460482E-1,-4.890632629E-1
3.915485521E0,4.018652439E-2,3.268545568E-1,-5.673475266E-1
3.920357761E0,-5.208736658E-2,3.386322856E-1,-6.168146133E-1
3.925230001E0,-2.127854824E-1,3.362526298E-1,-5.693340302E-1
3.930102240E0,-4.229329228E-1,2.960492074E-1,-3.962621689E-1
3.934974480E0,-7.282830477E-1,2.382887006E-1,-2.328386307E-1
3.939846719E0,-1.035452366E0,2.083849013E-1,-1.340522766E-1
3.944718959E0,-1.282378435E0,1.989720464E-1,-1.057987213E-1
3.949591198E0,-1.425035238E0,2.098488510E-1,-1.025505066E-1
3.954463438E0,-1.458391309E0,2.598987222E-1,-1.828794479E-1
3.959335678E0,-1.466768742E0,3.287168145E-1,-3.000888824E-1
3.964207969E0,-1.466012836E0,4.041383266E-1,-4.290714264E-1
3.969080209E0,-1.415883541E0,4.789161384E-1,-5.387620926E-1
3.973952448E0,-1.355561376E0,5.052030087E-1,-6.459388733E-1
3.978824688E0,-1.234301567E0,4.746381640E-1,-7.398681641E-1
3.983696928E0,-1.047418118E0,3.956032693E-1,-7.882823944E-1
3.988569167E0,-7.882979512E-1,2.239122093E-1,-7.768707275E-1
3.993441407E0,-4.823120832E-1,3.384259343E-2,-7.511272430E-1
3.998313646E0,-2.092792690E-1,-1.544680595E-1,-7.589006424E-1
4.003185886E0,3.149399161E-2,-3.240991831E-1,-7.786617279E-1
4.008058126E0,1.963312030E-1,-4.356755316E-1,-7.817144394E-1
4.012930365E0,3.257868588E-1,-5.094706416E-1,-6.843833923E-1
4.017802605E0,3.637330234E-1,-5.357840061E-1,-5.082607269E-1
4.022674844E0,3.757270873E-1,-4.797468781E-1,-2.785043716E-1
4.027547136E0,3.462667465E-1,-3.495044708E-1,-6.568717957E-2
4.032419376E0,3.633505106E-1,-1.495750993E-1,5.369853973E-2
4.037291615E0,3.695719242E-1,6.887429953E-2,1.096420288E-1
4.042163855E0,3.435912132E-1,2.976645529E-1,9.024620056E-2
4.047036094E0,2.121635675E-1,5.202522278E-1,2.665424347E-2
4.051908334E0,2.534270287E-2,7.306925654E-1,-2.611446381E-2
4.056780573E0,-2.240241468E-1,8.465559483E-1,-4.416370392E-2
4.061652813E0,-5.036944747E-1,8.583077192E-1,-5.502796173E-2
4.066525053E0,-8.205695152E-1,7.660617828E-1,-8.502197266E-2
4.071397292E0,-1.118028402E0,6.155038476E-1,-1.401147842E-1
4.076269532E0,-1.322681427E0,4.615951478E-1,-1.545295715E-1
4.081141771E0,-1.435584545E0,3.365089893E-1,-1.127786636E-1
4.086014063E0,-1.448771715E0,2.425410599E-1,-2.328586578E-2
4.090886303E0,-1.379231930E0,2.035308629E-1,8.879089355E-2
4.095758542E0,-1.229475021E0,2.180722654E-1,1.648502350E-1
4.100630782E0,-1.007892966E0,2.322085500E-1,2.288494110E-1
4.105503021E0,-8.007229567E-1,3.042412996E-1,3.250513077E-1
4.110375261E0,-5.991615057E-1,3.609743118E-1,3.948602676E-1
4.115247501E0,-4.202841520E-1,4.416716695E-1,4.024591446E-1
4.120119740E0,-2.240509987E-1,4.899867177E-1,2.845468521E-1
4.124991980E0,-8.589309454E-2,5.787400603E-1,1.117849350E-1
4.129864219E0,3.768518567E-2,6.622470617E-1,-2.370834351E-2
4.134736459E0,1.129960418E-1,6.747344732E-1,-1.004524231E-1
4.139608698E0,1.277104616E-1,6.495779753E-1,-1.173133850E-1
4.144480938E0,1.064130962E-1,5.472350121E-1,-6.239128113E-2
4.149353178E0,2.625694871E-2,3.891718686E-1,-1.707458496E-2
4.154225469E0,-4.916417599E-2,2.065583467E-1,7.123947144E-4
4.159097709E0,-1.526688486E-1,3.518681601E-2,-3.053760529E-2
4.163969948E0,-3.236362338E-1,-6.773144007E-2,-1.751232147E-2
4.168842188E0,-5.306937695E-1,-1.082192212E-1,4.454040527E-2
4.173714428E0,-7.432090044E-1,-1.068526655E-1,9.937477112E-2
4.178586667E0,-9.448742867E-1,-9.111089259E-2,1.171216965E-1
4.183458907E0,-1.085635781E0,-3.938012570E-2,7.631015778E-2
4.188331146E0,-1.145262837E0,5.532315373E-2,-8.518981934E-2
4.193203386E0,-1.163167715E0,1.822977513E-1,-2.871589661E-1
4.198075626E0,-1.195026159E0,2.793097198E-1,-4.375028610E-1
4.202947865E0,-1.165762663E0,3.213880658E-1,-4.980201721E-1
4.207820105E0,-1.066252947E0,2.979473770E-1,-5.166358948E-1
4.212692396E0,-9.267063141E-1,2.188122123E-1,-5.113286972E-1
4.217564636E0,-7.616505027E-1,9.870710969E-2,-4.785366058E-1
4.222436876E0,-6.056714058E-1,-3.719132766E-2,-3.776473999E-1
4.227309115E0,-5.103110075E-1,-1.755766273E-1,-2.338466644E-1
4.232181355E0,-4.114560485E-1,-2.981978357E-1,-1.225004196E-1
4.237053594E0,-3.176955581E-1,-3.464426696E-1,-5.671310425E-2
4.241925834E0,-2.526568174E-1,-3.790028691E-1,-4.480361938E-2
4.246798073E0,-1.840521097E-1,-3.574810028E-1,-5.562305450E-2
4.251670313E0,-1.036182344E-1,-2.773062885E-1,-4.609680176E-2
4.256542553E0,-8.467594534E-2,-1.743018478E-1,2.081584930E-2
4.261414792E0,-6.592878699E-2,-6.285219640E-2,3.146171570E-2
4.266287032E0,-9.798671305E-2,1.520682871E-2,5.026817322E-3
4.271159271E0,-1.090539396E-1,9.690974653E-2,-1.300907135E-2
4.276031511E0,-1.215930283E-1,1.414013803E-1,3.235244751E-2
4.280903803E0,-7.322663069E-2,1.272239834E-1,6.213665009E-2
4.285776042E0,-1.169441640E-2,8.171853423E-2,3.929805756E-2
4.290648282E0,2.759978920E-2,1.081555337E-2,-4.566669464E-2
4.295520521E0,1.265758574E-1,-4.837447405E-2,-1.628007889E-1
4.300392761E0,2.088467330E-1,-9.726527333E-2,-2.008771896E-1
4.305265001E0,1.978288740E-1,-1.716477573E-1,-1.635799408E-1
4.310137240E0,1.237148196E-1,-2.273262143E-1,-8.567523956E-2
4.315009480E0,1.594723016E-2,-2.592654824E-1,1.485729218E-2
4.319881719E0,-9.429086745E-2,-2.255929559E-1,7.462215424E-2
4.324753959E0,-1.942868531E-1,-1.789807379E-1,5.062675476E-2
4.329626198E0,-2.351795435E-1,-8.944347501E-2,6.970405579E-2
4.334498438E0,-2.414619327E-1,-2.522706240E-2,9.713459015E-2
4.339370678E0,-2.156830132E-1,-1.744431257E-2,9.584617615E-2
4.344242969E0,-1.620968133E-1,-9.590023756E-2,2.761459351E-2
4.349115209E0,-5.706144124E-2,-2.268823087E-1,-1.038951874E-1
4.353987448E0,5.972923711E-2,-3.744311631E-1,-2.639360428E-1
4.358859688E0,1.079272628E-1,-5.252125263E-1,-3.958358765E-1
4.363731928E0,7.441590726E-2,-6.746892333E-1,-5.028848648E-1
4.368604167E0,-5.693664774E-3,-7.360717058E-1,-4.914999008E-1
4.373476407E0,-9.357023984E-2,-7.315610051E-1,-3.258638382E-1
4.378348646E0,-1.543398499E-1,-6.996334195E-1,-1.295404434E-1
4.383220886E0,-1.857296228E-1,-5.788917542E-1,-4.286384583E-2
4.388093126E0,-2.425168008E-1,-4.211533666E-1,-8.201599121E-4
4.392965365E0,-3.190026283E-1,-2.065834105E-1,3.970527649E-2
4.397837605E0,-3.916066289E-1,-4.134321213E-2,9.177875519E-2
4.402709844E0,-4.605380893E-1,4.155643284E-2,2.063379288E-1
4.407582084E0,-4.709478617E-1,6.785345078E-2,2.688846588E-1
4.412454323E0,-4.226661921E-1,3.213778138E-2,2.632331848E-1
4.417326615E0,-2.725834846E-1,-5.632966757E-3,2.552461624E-1
4.422198855E0,-1.065855324E-1,-3.951826692E-2,2.556304932E-1
4.427071094E0,1.561334729E-2,-5.848542601E-2,2.215738297E-1
4.431943334E0,2.084892392E-1,-8.043913543E-2,1.616678238E-1
4.436815573E0,4.741106629E-1,-3.401528299E-2,7.850551605E-2
4.441687813E0,7.590853572E-1,-5.192130804E-3,-3.364658356E-2
4.446560053E0,1.003027558E0,3.905624151E-3,-1.424922943E-1
4.451432292E0,1.174275279E0,-6.832659245E-2,-1.958332062E-1
4.456304532E0,1.297577620E0,-1.204104424E-1,-1.775178909E-1
4.461176771E0,1.366014242E0,-1.964268982E-1,-2.525043488E-2
4.466049011E0,1.383650541E0,-2.511051893E-1,1.660690308E-1
4.470921251E0,1.334033966E0,-3.121301532E-1,2.869119644E-1
4.475793490E0,1.219383240E0,-3.296588063E-1,3.093929291E-1
4.480665730E0,1.042742014E0,-2.924138904E-1,2.450370789E-1
4.485538021E0,8.238955140E-1,-2.388223708E-1,8.745193481E-2
4.490410261E0,5.579137802E-1,-1.263110191E-1,-5.099868774E-2
4.495282501E0,2.973973453E-1,3.619734943E-2,-1.621665955E-1
4.500154740E0,3.595057130E-2,2.114255428E-1,-3.198823929E-1
4.505026980E0,-2.183655053E-1,4.063737988E-1,-4.928989410E-1
4.509899219E0,-4.220703244E-1,5.806035399E-1,-4.935312271E-1
4.514771459E0,-5.479100347E-1,6.619476080E-1,-4.169988632E-1
4.519643698E0,-6.169213057E-1,7.294831872E-1,-3.648386002E-1
4.524515938E0,-6.261417866E-1,7.240421772E-1,-3.119230270E-1
4.529388178E0,-6.270506382E-1,6.699855924E-1,-2.855577469E-1
4.534260417E0,-5.983272791E-1,5.441324115E-1,-2.594051361E-1
4.539132657E0,-5.452584624E-1,3.410693109E-1,-1.800451279E-1
4.544004896E0,-4.713177681E-1,1.080045998E-1,-3.249549866E-2
4.548877136E0,-4.174256027E-1,-1.248210594E-1,7.701396942E-2
4.553749376E0,-3.677113652E-1,-2.597717941E-1,1.274271011E-1
4.558621615E0,-3.149707913E-1,-3.128532171E-1,1.809616089E-1
4.563493907E0,-2.299782634E-1,-2.370354831E-1,3.004980087E-1
4.568366146E0,-1.081575155E-1,-1.102491319E-1,4.130573273E-1
4.573238386E0,3.488816321E-3,8.735267818E-2,4.498414993E-1
4.578110626E0,8.847243339E-2,2.969915867E-1,4.862709045E-1
4.582982865E0,1.821973175E-1,5.197341442E-1,5.567731857E-1
4.587855105E0,2.974745929E-1,7.149483562E-1,6.420783997E-1
4.592727344E0,3.336706161E-1,8.696178198E-1,6.471118927E-1
4.597599584E0,3.007244468E-1,9.018954039E-1,6.188602448E-1
4.602471823E0,2.241781801E-1,8.279820681E-1,5.730400085E-1
4.607344063E0,1.011193097E-1,6.708180308E-1,5.525522232E-1
4.612216303E0,4.667546600E-2,4.935096800E-1,4.847841263E-1
4.617088542E0,7.519552112E-2,3.253648877E-1,3.926963806E-1
4.621960782E0,1.545086652E-1,1.693004966E-1,2.527532578E-1
4.626833021E0,2.587145269E-1,-3.772765398E-3,9.740161896E-2
4.631705261E0,3.624010086E-1,-1.456453055E-1,-8.273315430E-2
4.636577501E0,4.822733104E-1,-2.770418227E-1,-1.936731339E-1
4.641449792E0,6.029877067E-1,-3.864751458E-1,-2.751798630E-1
4.646322032E0,7.178690434E-1,-4.362923205E-1,-3.821105957E-1
4.651194271E0,7.783434391E-1,-4.805572629E-1,-4.465942383E-1
4.656066511E0,7.740564346E-1,-5.010782480E-1,-3.657083511E-1
4.660938751E0,7.809376717E-1,-5.001810193E-1,-1.513442993E-1
4.665810990E0,7.538707256E-1,-4.930263162E-1,7.548904419E-2
4.670683230E0,6.469709277E-1,-4.518430233E-1,1.330671310E-1
4.675555469E0,4.682401121E-1,-4.512389600E-1,1.379470825E-1
4.680427709E0,2.900061607E-1,-4.394142330E-1,1.938447952E-1
4.685299948E0,1.108451635E-1,-3.946479261E-1,2.409801483E-1
4.690172188E0,-5.532567576E-2,-3.380916119E-1,2.924766541E-1
4.695044428E0,-1.917969286E-1,-2.623612881E-1,2.723197937E-1
4.699916667E0,-3.088539243E-1,-2.053885460E-1,8.732986450E-2
4.704788907E0,-4.194891751E-1,-1.561615467E-1,-7.831478119E-2
4.709661146E0,-4.836179614E-1,-1.347127557E-1,-1.523666382E-1
4.714533386E0,-5.146151781E-1,-1.133952662E-1,-1.985111237E-1
4.719405678E0,-5.369043350E-1,-9.209539741E-2,-2.442808151E-1
4.724277917E0,-5.385561585E-1,-1.148124486E-1,-3.442745209E-1
4.729150157E0,-4.882808030E-1,-1.136677265E-1,-4.363031387E-1
4.734022396E0,-4.033420980E-1,-1.031250134E-1,-5.085611343E-1
4.738894636E0,-2.901606858E-1,-6.584909558E-2,-5.327129364E-1
4.743766876E0,-1.824661791E-1,-3.466613591E-3,-5.139093399E-1
4.748639115E0,-3.353521228E-3,1.263622791E-1,-5.035476685E-1
4.753511355E0,1.956069618E-1,2.195271999E-1,-5.157966614E-1
4.758383594E0,4.239458740E-1,2.607029080E-1,-5.279054642E-1
4.763255834E0,6.174150705E-1,2.051163018E-1,-5.505533218E-1
4.768128073E0,7.159241438E-1,6.429053843E-2,-5.575323105E-1
4.773000313E0,7.622532248E-1,-1.311694235E-1,-5.074357986E-1
4.777872553E0,7.982112765E-1,-3.652846813E-1,-3.532838821E-1
4.782744792E0,8.374710083E-1,-6.139248013E-1,-1.054840088E-1
4.787617032E0,8.420921564E-1,-8.246144056E-1,1.283111572E-1
4.792489271E0,8.461542130E-1,-1.004943728E0,1.511716843E-1
4.797361511E0,8.266698718E-1,-1.077904105E0,5.152511597E-2
4.802233803E0,7.333376408E-1,-1.075097322E0,-5.563926697E-2
4.807105990E0,6.274423599E-1,-9.734598398E-1,-9.784317017E-2
4.811978282E0,4.782070518E-1,-8.580767512E-1,-1.195497513E-1
4.816850521E0,3.318126798E-1,-7.015210390E-1,-9.719467163E-2
4.821722761E0,2.261918932E-1,-5.324153304E-1,-1.142444611E-1
4.826595001E0,1.712214500E-1,-3.352181613E-1,-2.154588699E-1
4.831467240E0,1.528681517E-1,-9.818145633E-2,-2.279996872E-1
4.836339480E0,1.645608544E-1,1.369738281E-1,-1.407365799E-1
4.841211719E0,1.442646980E-1,2.802137733E-1,-8.745098114E-2
4.846083959E0,1.571148783E-1,4.072164297E-1,-1.295719147E-1
4.850956198E0,1.928616762E-1,4.469641149E-1,-2.484817505E-1
4.855828438E0,2.592929006E-1,4.700273573E-1,-3.414373398E-1
4.860700678E0,3.757261932E-1,4.834879339E-1,-3.825263977E-1
4.865572917E0,4.790038466E-1,4.184256792E-1,-4.196605682E-1
4.870445157E0,6.161647439E-1,3.427837491E-1,-5.169649124E-1
4.875317396E0,7.254964113E-1,2.231087238E-1,-6.288223267E-1
4.880189636E0,8.072391748E-1,3.670352697E-2,-6.079111099E-1
4.885061876E0,8.168193698E-1,-1.615881622E-1,-4.244890213E-1
4.889934115E0,8.028570414E-1,-3.185352385E-1,-2.140569687E-1
4.894806407E0,7.724609971E-1,-4.559462368E-1,5.162525177E-2
4.899678646E0,7.057670355E-1,-5.434450507E-1,2.818555832E-1
4.904550886E0,6.008884907E-1,-5.720100403E-1,3.795871735E-1
4.909423126E0,4.355776608E-1,-5.327036381E-1,3.886518478E-1
4.914295365E0,2.542809844E-1,-3.691729605E-1,5.210590363E-1
4.919167605E0,-7.493956387E-2,-1.666640490E-1,5.609045029E-1
4.924039844E0,-4.941429794E-1,2.115623653E-2,5.030193329E-1
4.928912084E0,-8.855397105E-1,1.754387617E-1,5.903367996E-1
4.933784323E0,-1.198866963E0,3.201507032E-1,6.051311493E-1
4.938656563E0,-1.374858975E0,5.165678859E-1,4.297494888E-1
4.943528803E0,-1.431970000E0,7.113038898E-1,1.075191498E-1
4.948401042E0,-1.376129270E0,8.941718340E-1,-1.270265579E-1
4.953273282E0,-1.245421410E0,1.048959494E0,-2.632398605E-1
4.958145521E0,-1.089899302E0,1.177348495E0,-3.645868301E-1
4.963017761E0,-8.896089792E-1,1.253347874E0,-4.227123260E-1
4.967890001E0,-6.348617077E-1,1.233109236E0,-4.400463104E-1
4.972762240E0,-4.064841568E-1,1.140690565E0,-4.991197586E-1
4.977634480E0,-2.377703190E-1,1.012165070E0,-5.520505905E-1
4.982506719E0,-6.487275660E-2,8.125516772E-1,-6.394901276E-1
4.987379011E0,1.114437059E-1,5.294593573E-1,-7.255392075E-1
4.992251251E0,1.616460234E-1,2.017101943E-1,-7.683734894E-1
4.997123490E0,7.037180662E-2,-1.199590266E-1,-7.919778824E-1
5.001995730E0,-5.555773526E-2,-3.968201876E-1,-7.509784698E-1
5.006867969E0,-2.394895256E-1,-6.246727705E-1,-6.347284317E-1
5.011740209E0,-4.295191467E-1,-7.765554786E-1,-5.198650360E-1
5.016612448E0,-6.472543478E-1,-8.852283955E-1,-4.422779083E-1
5.021484688E0,-8.625217676E-1,-8.885867596E-1,-4.114866257E-1
5.026356928E0,-1.064939499E0,-8.643555641E-1,-4.955701828E-1
5.031229167E0,-1.240254045E0,-7.681891322E-1,-4.791736603E-1
5.036101407E0,-1.289624929E0,-5.617318153E-1,-4.939193726E-1
5.040973646E0,-1.230253696E0,-2.543846965E-1,-5.517053604E-1
5.045845886E0,-1.065071940E0,1.241967678E-1,-3.703203201E-1
5.050718126E0,-8.903223276E-1,5.491958261E-1,-5.528068542E-2
5.055590365E0,-7.189359665E-1,8.714958429E-1,1.983652115E-1
5.060462605E0,-5.670599937E-1,1.026912808E0,3.452529907E-1
5.065334844E0,-4.887424707E-1,9.930803776E-1,4.106101990E-1
5.070207084E0,-4.742714465E-1,8.312673569E-1,4.662704468E-1
5.075079323E0,-5.427151322E-1,5.835844874E-1,5.014801025E-1
5.079951615E0,-5.983073115E-1,2.631626427E-1,5.007181168E-1
5.084823855E0,-6.003677249E-1,-4.366481304E-2,4.209918976E-1
5.089696094E0,-5.808273554E-1,-3.068381548E-1,2.946987152E-1
5.094568334E0,-4.974632263E-1,-5.297416449E-1,2.091941833E-1
5.099440573E0,-4.114531875E-1,-7.814547420E-1,2.062807083E-1
5.104312813E0,-3.419138193E-1,-9.958980083E-1,2.583742142E-1
5.109185053E0,-3.093080819E-1,-1.133339167E0,3.391189575E-1
5.114057292E0,-3.030471802E-1,-1.150557280E0,3.050508499E-1
5.118929532E0,-1.208156645E-1,-9.157602787E-1,1.240739822E-1
5.123801771E0,2.912957221E-2,-9.431000948E-1,-1.110839844E-2
5.128674011E0,-1.538031846E-1,-8.651323318E-1,3.813743591E-2
5.133546251E0,-2.831212282E-1,-5.465965867E-1,2.978820801E-1
5.138418490E0,-3.052049577E-1,-2.760079801E-1,5.825271606E-1
5.143290730E0,-1.369320154E-1,-7.124140859E-2,7.772655487E-1
5.148162969E0,2.362938523E-1,3.331393003E-2,1.057990074E0
5.153035209E0,7.331533432E-1,6.390583515E-2,1.450919151E0
5.157907448E0,1.247942805E0,-1.070064306E-2,1.679782867E0
5.162779688E0,1.701933622E0,-2.515329123E-1,1.695823669E0
5.167651928E0,1.892117620E0,-5.403482318E-1,1.691829681E0
5.172524167E0,1.832740664E0,-8.297264576E-1,1.740734100E0
5.177396407E0,1.650483608E0,-1.090723276E0,1.869880676E0
5.182268698E0,1.394713998E0,-1.348381519E0,1.967877388E0
5.187140886E0,1.010341883E0,-1.611247540E0,1.838543892E0
5.192013178E0,5.569579005E-1,-1.835256100E0,1.585994720E0
5.196885417E0,1.935996115E-1,-1.991801500E0,1.350070000E0
5.201757657E0,-4.556342959E-2,-1.960101962E0,1.166460037E0
5.206629896E0,-2.263301909E-1,-1.775732756E0,1.046987534E0
5.211502136E0,-4.430674314E-1,-1.562266588E0,1.007167816E0
5.216374376E0,-7.496364713E-1,-1.373546004E0,9.597539902E-1
5.221246615E0,-1.120543838E0,-1.192772865E0,8.367452621E-1
5.226118855E0,-1.402992249E0,-8.963314891E-1,9.049968719E-1
5.230991094E0,-1.547392368E0,-5.921642780E-1,1.233737946E0
5.235863334E0,-1.574169874E0,-3.492263556E-1,1.383972168E0
5.240735573E0,-1.620159864E0,-2.600592375E-2,1.541284561E0
5.245607813E0,-1.687269330E0,4.935716391E-1,1.962707520E0
5.250480053E0,-1.862780929E0,1.110157132E0,2.408740997E0
5.255352292E0,-2.174045563E0,1.674269438E0,2.567272186E0
5.260224532E0,-2.477678061E0,2.194591045E0,2.390871048E0
5.265096771E0,-2.521416903E0,2.617386818E0,2.010360718E0
5.269969011E0,-2.171252728E0,2.889995575E0,1.445230484E0
5.274841251E0,-1.476388097E0,2.899652958E0,7.961950302E-1
5.279713490E0,-8.391836882E-1,2.394620180E0,1.195812225E-1
5.284585730E0,-2.925488055E-1,1.731674433E0,-2.450647354E-1
5.289457969E0,2.680691481E-1,9.582463503E-1,-4.535875320E-1
5.294330261E0,8.926354647E-1,1.991095245E-1,-8.158140182E-1
5.299202501E0,1.566680551E0,-4.106760621E-1,-1.240665436E0
5.304074740E0,2.160926819E0,-8.513334394E-1,-1.592980385E0
5.308946980E0,2.521294355E0,-1.122587204E0,-1.935085297E0
5.313819219E0,2.694992542E0,-1.190915346E0,-2.316132545E0
5.318691459E0,2.873305798E0,-1.081480980E0,-2.576051712E0
5.323563698E0,2.961564302E0,-7.995766401E-1,-2.405552387E0
5.328435938E0,2.779126883E0,-4.622122049E-1,-1.719281197E0
5.333308178E0,2.133247137E0,-1.458624601E-1,-9.256105423E-1
5.338180417E0,1.176843643E0,3.854155540E-2,-2.840614319E-1
5.343052657E0,1.874719560E-1,1.370063424E-1,1.399097443E-1
5.347924896E0,-8.024806380E-1,1.046842933E-1,4.064435959E-1
5.352797136E0,-1.571986914E0,-3.530001640E-2,6.520709991E-1
5.357669376E0,-2.104146719E0,-3.090699911E-1,8.158645630E-1
5.362541615E0,-2.471788645E0,-8.404155374E-1,8.346090317E-1
5.367413855E0,-2.843967438E0,-1.587648869E0,6.296577454E-1
5.372286094E0,-3.256947756E0,-2.305714130E0,2.157373428E-1
5.377158334E0,-3.628156662E0,-2.838431597E0,-1.844129562E-1
5.382030573E0,-3.841943026E0,-3.089354277E0,-5.192975998E-1
5.386902813E0,-3.860493660E0,-3.053217649E0,-9.084577560E-1
5.391775053E0,-3.706761360E0,-2.710182905E0,-1.409092903E0
5.396647292E0,-3.441447973E0,-2.076333284E0,-1.947995186E0
5.401519532E0,-2.966855526E0,-1.322945833E0,-2.208191872E0
5.406391823E0,-2.350909710E0,-5.266816616E-1,-1.900738716E0
5.411264063E0,-1.797472239E0,5.267807841E-2,-1.289519310E0
5.416136303E0,-1.479048610E0,3.965284526E-1,-6.608314514E-1
5.421008542E0,-1.308266163E0,5.540042520E-1,-5.191135406E-2
5.425880782E0,-1.177653790E0,6.191248894E-1,4.678153992E-1
5.430753021E0,-1.170110464E0,5.277225375E-1,9.222621918E-1
5.435625261E0,-1.272054672E0,1.976689547E-1,1.282677650E0
5.440497501E0,-1.513798237E0,-4.642037749E-1,1.561014175E0
5.445369740E0,-1.851072788E0,-1.437058926E0,1.799145699E0
5.450241980E0,-2.199855328E0,-2.549192667E0,2.039025307E0
5.455114219E0,-2.507993221E0,-3.644203901E0,2.259339333E0
5.459986459E0,-2.757372379E0,-4.440165997E0,2.316834450E0
5.464858698E0,-2.979408264E0,-4.713868141E0,2.034946442E0
5.469730938E0,-3.013761044E0,-4.324860096E0,1.613875389E0
5.474603178E0,-2.796732426E0,-3.465035677E0,1.243968010E0
5.479475417E0,-2.492558956E0,-2.347164869E0,1.055415154E0
5.484347657E0,-2.343987703E0,-1.173907876E0,1.031097412E0
5.489219896E0,-2.453976631E0,-4.486861825E-2,9.841966629E-1
5.494092136E0,-2.780301809E0,1.029910684E0,1.017461777E0
5.498964376E0,-3.119149446E0,2.076838017E0,1.119938850E0
5.503836615E0,-3.389532566E0,3.046845675E0,1.243546486E0
5.508708855E0,-3.604278326E0,3.819962502E0,1.151427269E0
5.513581094E0,-3.773088455E0,4.258339882E0,7.995691299E-1
5.518453334E0,-3.798462629E0,4.330520630E0,3.784294128E-1
5.523325573E0,-3.662946701E0,4.099267960E0,-4.250049591E-2
5.528197865E0,-3.332507610E0,3.579822302E0,-6.065073013E-1
5.533070105E0,-2.860567808E0,2.789991379E0,-1.242691040E0
5.537942344E0,-2.385563850E0,1.879447818E0,-1.849167347E0
5.542814584E0,-1.882623076E0,9.943577647E-1,-2.441271782E0
5.547686823E0,-1.341934681E0,2.257669568E-1,-2.936343670E0
5.552559063E0,-7.176649570E-1,-3.877254426E-1,-3.335740089E0
5.557431303E0,7.995319366E-2,-7.902297974E-1,-3.699553013E0
5.562303542E0,1.045049667E0,-9.223105907E-1,-4.183308125E0
5.567175782E0,1.901268721E0,-7.771792412E-1,-4.830910683E0
5.572048021E0,2.533831120E0,-4.296953678E-1,-5.320379257E0
5.576920261E0,2.832530975E0,3.651423752E-2,-5.317323208E0
5.581792501E0,2.848366261E0,6.284871697E-1,-4.969801903E0
5.586664740E0,2.718103886E0,1.391068816E0,-4.632443428E0
5.591536980E0,2.539424419E0,2.204991341E0,-4.468103409E0
5.596409219E0,2.157845259E0,2.928052902E0,-4.531661987E0
5.601281459E0,1.574626446E0,3.495477915E0,-4.686462402E0
5.606153698E0,8.696405292E-1,3.826022148E0,-4.951295853E0
5.611025938E0,3.297891617E-1,3.902153492E0,-5.330519676E0
5.615898178E0,9.101891518E-2,3.912022114E0,-5.619236469E0
5.620770417E0,8.207654953E-2,3.903941631E0,-5.819629192E0
5.625642657E0,2.934070826E-1,3.810765982E0,-6.022573471E0
5.630514896E0,7.364261746E-1,3.473716497E0,-6.326071739E0
5.635387136E0,1.404611826E0,2.892659187E0,-6.689297199E0
5.640259376E0,2.417386770E0,2.196797371E0,-6.741838455E0
5.645131615E0,3.685181379E0,1.510484695E0,-6.467821121E0
5.650003855E0,4.861830235E0,7.451903820E-1,-6.309080601E0
5.654876094E0,5.800981045E0,-5.673541129E-2,-6.200069427E0
5.659748334E0,6.541455269E0,-7.121931314E-1,-5.839894295E0
5.664620573E0,7.131209373E0,-1.028907180E0,-5.198100090E0
5.669492865E0,7.497714996E0,-1.183519483E0,-4.567977905E0
5.674365105E0,7.447257042E0,-1.362473607E0,-4.089275360E0
5.679237292E0,6.908892155E0,-1.457073092E0,-3.640795708E0
5.684109584E0,5.997124195E0,-1.316106796E0,-3.024957657E0
5.688981823E0,5.019164562E0,-9.739348888E-1,-2.124674797E0
5.693854063E0,4.139157295E0,-5.477313399E-1,-1.360858917E0
5.698726303E0,3.442919254E0,-1.447595358E-1,-9.325761795E-1
5.703598542E0,2.907788038E0,3.283879161E-1,-7.038145065E-1
5.708470782E0,2.502902746E0,8.109761477E-1,-7.240200043E-1
5.713343021E0,2.174925327E0,1.186249733E0,-9.243783951E-1
5.718215261E0,2.002773762E0,1.533815622E0,-1.037994385E0
5.723087501E0,2.084009886E0,1.884063721E0,-8.643407822E-1
5.727959740E0,2.390838623E0,2.217268467E0,-5.521793365E-1
5.732831980E0,2.938382626E0,2.360687256E0,-2.809686661E-1
5.737704219E0,3.475717068E0,2.210336685E0,9.274673462E-2
5.742576459E0,3.871496201E0,1.778502941E0,6.652994156E-1
5.747448698E0,4.119674683E0,1.012133241E0,1.464362144E0
5.752320938E0,4.409682751E0,-6.084039807E-3,2.192436218E0
5.757193178E0,4.761186600E0,-1.042462230E0,2.741538048E0
5.762065417E0,5.099152565E0,-1.924565196E0,3.154649734E0
5.766937657E0,5.355579376E0,-2.413019657E0,3.400779724E0
5.771809896E0,5.426252842E0,-2.421735048E0,3.349925995E0
5.776682136E0,5.313866138E0,-1.861323237E0,3.129394531E0
5.781554376E0,5.054957390E0,-8.713537455E-1,2.910399437E0
5.786426615E0,4.613418102E0,1.856117249E-1,2.743299484E0
5.791298855E0,4.006435394E0,1.031831503E0,2.770622253E0
5.796171094E0,3.158773422E0,1.398724198E0,3.097887993E0
5.801043334E0,2.099468946E0,1.257809401E0,3.623982430E0
5.805915573E0,1.063230872E0,7.477852702E-1,4.357946396E0
5.810787813E0,2.740210295E-1,5.774536729E-2,5.276062012E0
5.815660053E0,-8.054637909E-2,-6.039485931E-1,6.222540855E0
5.820532292E0,5.415821075E-2,-1.039675593E0,6.937471390E0
5.825404584E0,5.787019730E-1,-1.112805486E0,7.257843018E0
5.830276823E0,1.205521464E0,-7.991887331E-1,7.231068611E0
5.835149063E0,1.832851171E0,-1.441293061E-1,6.757734299E0
5.840021303E0,2.172757387E0,6.711601615E-1,6.324081421E0
5.844893542E0,2.220754385E0,1.306725025E0,5.719266891E0
5.849765782E0,2.162823439E0,1.873833776E0,5.113326073E0
5.854638021E0,1.863299847E0,2.104339123E0,4.844739914E0
5.859510261E0,1.344307184E0,1.790563107E0,4.624181747E0
5.864382501E0,7.634677887E-1,9.426920414E-1,4.388774872E0
5.869254740E0,3.207213879E-1,-1.968208551E-1,4.162853241E0
5.874126980E0,1.576242447E-1,-1.388808489E0,3.907133102E0
5.878999219E0,2.200376987E-1,-2.425215960E0,3.598931313E0
5.883871459E0,4.364356995E-1,-3.188583851E0,3.177410126E0
5.888743698E0,6.959706545E-1,-3.524424553E0,2.729144096E0
5.893615938E0,9.088521004E-1,-3.468459845E0,2.377772331E0
5.898488178E0,1.066831112E0,-3.015622616E0,2.116155624E0
5.903360417E0,1.232431412E0,-2.220907211E0,1.968005180E0
5.908232657E0,1.423229456E0,-1.103068590E0,2.070177078E0
5.913104896E0,1.612018824E0,4.949158430E-2,2.335712433E0
5.917977136E0,1.774882555E0,1.037616968E0,2.588373184E0
5.922849376E0,1.741914749E0,1.613774061E0,2.945384026E0
5.927721615E0,1.477014065E0,1.703880787E0,3.504639626E0
5.932593855E0,1.095199347E0,1.326767445E0,4.146162033E0
5.937466094E0,6.727989912E-1,6.937761307E-1,4.591341019E0
5.942338334E0,3.792412281E-1,-1.364064217E-2,4.795316696E0
5.947210573E0,2.728869915E-1,-6.772576571E-1,4.816152573E0
5.952082813E0,2.750597000E-1,-1.204763889E0,4.606435776E0
5.956955053E0,2.869977951E-1,-1.646995306E0,4.257207870E0
5.961827292E0,2.200617790E-1,-2.056527138E0,3.826904297E0
5.966699532E0,4.808497429E-2,-2.475521564E0,3.321287155E0
5.971571771E0,-8.874106407E-2,-2.797328949E0,2.685437202E0
5.976444011E0,-1.919131279E-1,-2.916329861E0,2.058611870E0
5.981316251E0,-2.624685764E-1,-2.727988243E0,1.442468643E0
5.986188490E0,-2.528185844E-1,-2.246500015E0,9.939756393E-1
5.991060730E0,-2.296774387E-1,-1.570015907E0,8.634958267E-1
5.995932969E0,-2.357120514E-1,-8.854556680E-1,1.093370438E0
6.000805209E0,-2.782800198E-1,-4.441088140E-1,1.547626495E0
6.005677448E0,-2.973668575E-1,-3.000945449E-1,2.144396782E0
6.010549688E0,-2.577445507E-1,-3.811096549E-1,2.804448128E0
6.015421980E0,-1.315612793E-1,-4.986197352E-1,3.294743538E0
6.020294219E0,3.923940659E-2,-5.064193010E-1,3.583318710E0
6.025166407E0,2.307482958E-1,-4.492216110E-1,3.663140297E0
6.030038698E0,3.658130169E-1,-3.680751324E-1,3.510289192E0
6.034910938E0,4.862980843E-1,-2.715525031E-1,3.092880249E0
6.039783178E0,5.791839361E-1,-1.835421622E-1,2.584986687E0
6.044655417E0,6.157633066E-1,-9.192448854E-2,2.143656731E0
6.049527657E0,6.022310257E-1,4.667121172E-2,1.826265335E0
6.054399896E0,4.772465229E-1,1.632978916E-1,1.609866142E0
6.059272136E0,3.648670912E-1,1.401788592E-1,1.386656761E0
6.064144376E0,2.975817919E-1,-2.654358745E-2,1.137563705E0
6.069016615E0,2.412927151E-1,-3.427400589E-1,9.440412521E-1
6.073888855E0,1.703019142E-1,-7.854037285E-1,8.862323761E-1
6.078761094E0,1.276825666E-1,-1.334633589E0,9.352350235E-1
6.083633334E0,2.050409317E-1,-1.833992958E0,1.082405090E0
6.088505573E0,3.850164413E-1,-2.208399296E0,1.228242874E0
6.093377813E0,6.919759512E-1,-2.378241539E0,1.290087700E0
6.098250053E0,9.902579784E-1,-2.357035637E0,1.257154465E0
6.103122292E0,1.221182704E0,-2.139371157E0,1.092449188E0
6.107994532E0,1.339837193E0,-1.790421486E0,8.499994278E-1
6.112866771E0,1.350294471E0,-1.321828365E0,5.670299530E-1
6.117739011E0,1.232779026E0,-8.541989923E-1,2.723684311E-1
6.122611251E0,1.052780628E0,-4.007708430E-1,-6.488418579E-2
6.127483490E0,8.529175520E-1,6.771355867E-3,-4.014587402E-1
6.132355730E0,7.015053034E-1,3.617868721E-1,-7.325191498E-1
6.137227969E0,5.677847862E-1,6.418973207E-1,-9.348182678E-1
6.142100209E0,4.648383856E-1,7.446321249E-1,-1.012090683E0
6.146972448E0,3.945494890E-1,6.753412485E-1,-9.944572449E-1
6.151844688E0,3.017160892E-1,4.465559125E-1,-8.904266357E-1
6.156716928E0,1.383306980E-1,1.690128595E-1,-6.690616608E-1
6.161589167E0,-3.752648830E-2,-9.279135615E-2,-3.449840546E-1
6.166461407E0,-1.280542612E-1,-2.982977331E-1,-4.391098022E-2
6.171333646E0,-1.519613266E-1,-4.066699743E-1,1.957826614E-1
6.176205886E0,-9.721755981E-2,-4.084070921E-1,3.847236633E-1
6.181078126E0,1.970124245E-2,-3.751931190E-1,4.761791229E-1
6.185950365E0,1.565995216E-1,-2.959245741E-1,4.475021362E-1
6.190822605E0,2.701320648E-1,-1.725623906E-1,3.528137207E-1
6.195694844E0,3.156794310E-1,-6.331852078E-2,2.772283554E-1
6.200567084E0,2.604022026E-1,-1.439920068E-2,2.698392868E-1
6.205439323E0,1.581305265E-1,-1.458841562E-2,3.496694565E-1
6.210311563E0,1.390719414E-1,-2.310112119E-3,4.998369217E-1
6.215183803E0,2.227593660E-1,-4.545778036E-3,5.876321793E-1
6.220056042E0,4.133789539E-1,7.985964417E-3,6.252164841E-1
6.224928282E0,6.304894686E-1,5.954805017E-2,6.688013077E-1
6.229800573E0,7.849652767E-1,5.450136960E-2,7.625045776E-1
6.234672761E0,9.240851998E-1,5.778895319E-2,8.117055893E-1
6.239545001E0,1.075617433E0,6.570333987E-2,8.332548141E-1
6.244417292E0,1.249502540E0,1.402342021E-1,8.523759842E-1
6.249289532E0,1.424537420E0,2.712680995E-1,7.746973038E-1
6.254161771E0,1.553094983E0,4.497175217E-1,5.824518204E-1
6.259034011E0,1.606429935E0,6.567946672E-1,3.869533539E-1
6.263906251E0,1.613290310E0,8.915662766E-1,2.336330414E-1
6.268778490E0,1.618133783E0,1.077959895E0,8.659458160E-2
6.273650730E0,1.627209902E0,1.123253107E0,-4.576587677E-2
6.278522969E0,1.573318839E0,1.096324444E0,-1.681060791E-1
6.283395209E0,1.428185225E0,1.023065448E0,-1.859464645E-1
6.288267448E0,1.233550072E0,8.503791094E-1,-8.034038544E-2
6.293139688E0,1.027390242E0,5.469406843E-1,8.632659912E-2
6.298011928E0,8.368601799E-1,2.158117890E-1,2.625102997E-1
6.302884167E0,6.653840542E-1,-7.002849877E-2,4.027509689E-1
6.307756407E0,5.987406969E-1,-3.400390446E-1,4.688024521E-1
6.312628646E0,5.853368640E-1,-4.655507803E-1,4.499979019E-1
6.317500886E0,6.008175611E-1,-4.662680626E-1,4.372577667E-1
6.322373126E0,6.325631142E-1,-3.845321238E-1,4.400434494E-1
6.327245365E0,7.190605402E-1,-2.087172568E-1,3.997917175E-1
6.332117605E0,8.761672974E-1,-5.173032731E-2,3.333530426E-1
6.336989844E0,1.043861508E0,6.568995863E-2,2.514820099E-1
6.341862084E0,1.186992884E0,1.333184987E-1,1.266117096E-1
6.346734323E0,1.324503779E0,2.218717784E-1,-5.379676819E-3
6.351606563E0,1.419239521E0,2.917506695E-1,-1.265716553E-1
6.356478803E0,1.549972177E0,2.793187797E-1,-2.130956650E-1
6.361351042E0,1.629244328E0,2.404755056E-1,-2.853412628E-1
6.366223282E0,1.629650593E0,1.591091752E-1,-2.966785431E-1
6.371095521E0,1.507269979E0,2.035892010E-2,-2.579011917E-1
6.375967761E0,1.338929176E0,-1.474230587E-1,-1.475133896E-1
6.380840001E0,1.133524895E0,-3.686913252E-1,-1.095199585E-2
6.385712240E0,9.166543484E-1,-5.514130592E-1,6.335353851E-2
6.390584480E0,7.387609482E-1,-6.919314265E-1,4.323673248E-2
6.395456719E0,5.797363520E-1,-7.724673748E-1,-2.810192108E-2
6.400328959E0,4.586625099E-1,-7.938593626E-1,-1.278972626E-1
6.405201198E0,3.770092726E-1,-7.713827491E-1,-2.787885666E-1
6.410073438E0,3.419765234E-1,-7.070589066E-1,-4.185457230E-1
6.414945678E0,3.618121147E-1,-5.789138079E-1,-5.424251556E-1
6.419817917E0,4.255367517E-1,-4.069561958E-1,-5.919046402E-1
6.424690157E0,5.901279449E-1,-2.173176259E-1,-5.910530090E-1
6.429562396E0,8.283843994E-1,-4.558694363E-2,-6.201639175E-1
6.434434636E0,1.011397839E0,7.715094090E-2,-6.829195023E-1
6.439306876E0,1.160206318E0,1.604170203E-1,-6.466493607E-1
6.444179115E0,1.242196321E0,1.621895432E-1,-4.744615555E-1
6.449051355E0,1.277557850E0,4.905870557E-2,-2.155694962E-1
6.453923594E0,1.315834999E0,-1.025736630E-1,-3.901481628E-3
6.458795834E0,1.327586293E0,-2.629834414E-1,1.606769562E-1
6.463668073E0,1.288192034E0,-3.535566926E-1,2.591791153E-1
6.468540313E0,1.223993063E0,-4.234767258E-1,3.203811646E-1
6.473412553E0,1.166579008E0,-5.064713359E-1,2.906093597E-1
6.478284792E0,1.122394800E0,-5.558471084E-1,2.286233902E-1
6.483157032E0,1.102641344E0,-5.669469833E-1,1.763706207E-1
6.488029271E0,1.066123605E0,-5.410592556E-1,9.925460815E-2
6.492901511E0,9.785462618E-1,-5.272734165E-1,-2.177906036E-2
6.497773751E0,8.931585550E-1,-4.792979956E-1,-1.172513962E-1
6.502645990E0,7.936050892E-1,-3.866169453E-1,-2.110538483E-1
6.507518230E0,6.954572201E-1,-2.590898573E-1,-3.258991241E-1
6.512390521E0,6.155768037E-1,-1.709687710E-1,-4.533720016E-1
6.517262709E0,5.577582121E-1,-1.081218123E-1,-5.683097839E-1
6.522134948E0,5.543575287E-1,-1.099649668E-1,-6.252803802E-1
6.527007240E0,5.548181534E-1,-2.099969387E-1,-5.741672516E-1
6.531879428E0,5.537034273E-1,-3.591573536E-1,-4.594106674E-1
6.536751667E0,5.563352108E-1,-5.525494814E-1,-3.050756454E-1
6.541623959E0,5.362014174E-1,-6.583945751E-1,-1.638450623E-1
6.546496146E0,5.421547890E-1,-6.910951138E-1,-3.441810608E-3
6.551368438E0,5.459356904E-1,-6.983122826E-1,1.341648102E-1
6.556240678E0,5.838068724E-1,-6.797904968E-1,2.046480179E-1
6.561112865E0,6.357513666E-1,-6.520541906E-1,2.737236023E-1
6.565985157E0,6.989177465E-1,-5.992848873E-1,3.664216995E-1
6.570857396E0,7.300831079E-1,-5.259971619E-1,4.121255875E-1
6.575729636E0,7.449512482E-1,-4.572470784E-1,3.774280548E-1
6.580601876E0,7.031056881E-1,-4.011511803E-1,2.672166824E-1
6.585474115E0,6.658884287E-1,-3.301028609E-1,1.210737228E-1
6.590346355E0,6.710339189E-1,-3.049621582E-1,-2.501583099E-2
6.595218594E0,7.331765890E-1,-3.278428316E-1,-1.028747559E-1
6.600090834E0,7.768962979E-1,-4.301698208E-1,-1.639375687E-1
6.604963073E0,8.113857508E-1,-5.826507807E-1,-1.805629730E-1
6.609835313E0,8.095303774E-1,-7.870050073E-1,-1.756849289E-1
6.614707553E0,7.872567177E-1,-9.954199195E-1,-1.245241165E-1
6.619579792E0,7.379512191E-1,-1.159266710E0,-8.558845520E-2
6.624452032E0,7.031465769E-1,-1.259793758E0,-2.202129364E-2
6.629324271E0,6.876113415E-1,-1.244244576E0,5.887889862E-2
6.634196511E0,6.925899386E-1,-1.140940428E0,1.213893890E-1
6.639068751E0,7.319890261E-1,-1.000665784E0,1.775293350E-1
6.643940990E0,7.799735665E-1,-8.097034693E-1,2.391586304E-1
6.648813230E0,8.195188642E-1,-6.066000462E-1,2.788953781E-1
6.653685469E0,8.637373447E-1,-4.260018468E-1,2.909917831E-1
6.658557709E0,8.832062483E-1,-2.752056122E-1,3.517208099E-1
6.663429948E0,9.041137099E-1,-1.946542859E-1,4.428749084E-1
6.668302188E0,9.045668840E-1,-1.567050815E-1,5.095434189E-1
6.673174428E0,9.379707575E-1,-1.423690319E-1,5.483732224E-1
6.678046667E0,9.515700340E-1,-1.373948455E-1,5.987482071E-1
6.682918907E0,9.430338740E-1,-1.726628542E-1,6.261348724E-1
6.687791146E0,9.072985053E-1,-2.729747295E-1,6.213388443E-1
6.692663386E0,7.747032642E-1,-3.879029155E-1,5.953321457E-1
6.697535626E0,6.292799711E-1,-4.639467299E-1,6.005439758E-1
6.702407865E0,4.505510330E-1,-4.905788004E-1,6.188449860E-1
6.707280105E0,2.804032564E-1,-5.133271217E-1,5.990934372E-1
6.712152344E0,9.203028679E-2,-5.131430626E-1,5.333719254E-1
6.717024584E0,-5.827045441E-2,-4.733502865E-1,4.339704514E-1
6.721896823E0,-2.202788591E-1,-4.391688704E-1,3.237686157E-1
6.726769063E0,-3.465435505E-1,-4.185386896E-1,2.443704605E-1
6.731641303E0,-4.542202950E-1,-4.111389518E-1,2.002248764E-1
6.736513542E0,-4.768648148E-1,-3.845819235E-1,1.910429001E-1
6.741385782E0,-4.198508263E-1,-3.801727295E-1,1.868419647E-1
6.746258021E0,-2.730461359E-1,-3.902546763E-1,1.650199890E-1
6.751130261E0,-5.219805241E-2,-3.895297050E-1,1.528921127E-1
6.756002501E0,1.303873062E-1,-4.028127789E-1,1.810255051E-1
6.760874740E0,2.675950527E-1,-3.941906095E-1,2.333927155E-1
6.765746980E0,3.909372091E-1,-3.650504947E-1,2.894582748E-1
6.770619219E0,5.238883495E-1,-3.486835957E-1,2.541408539E-1
6.775491459E0,6.393111348E-1,-2.843248248E-1,1.792707443E-1
6.780363698E0,6.832503080E-1,-1.771769524E-1,9.612083435E-2
6.785235938E0,7.025570869E-1,-5.861353874E-2,8.786487579E-2
6.790108178E0,7.457617521E-1,6.397378445E-2,7.905769348E-2
6.794980417E0,7.888681889E-1,1.224882603E-1,3.293991089E-2
6.799852657E0,8.843543530E-1,7.461178303E-2,-8.810138702E-2
6.804724896E0,9.861521721E-1,-5.172288418E-2,-2.310752869E-1
6.809597136E0,1.070657730E0,-2.014808059E-1,-4.038724899E-1
6.814469376E0,1.112605095E0,-3.878268301E-1,-6.059408188E-1
6.819341615E0,1.169727564E0,-5.996924639E-1,-8.486909866E-1
6.824213855E0,1.190839291E0,-7.811535597E-1,-1.044967651E0
6.829086094E0,1.186134338E0,-9.515390396E-1,-1.121513367E0
6.833958334E0,1.168814182E0,-1.088319778E0,-1.074601173E0
6.838830573E0,1.110197186E0,-1.153820753E0,-8.744392395E-1
6.843702813E0,1.014347672E0,-1.180577636E0,-5.200777054E-1
6.848575053E0,9.149358273E-1,-1.152408361E0,-8.891487122E-2
6.853447292E0,8.340934515E-1,-1.080291510E0,2.177257538E-1
6.858319532E0,7.608735561E-1,-9.263747334E-1,3.723649979E-1
6.863191771E0,6.749744415E-1,-7.565978765E-1,4.641056061E-1
6.868064011E0,6.340782642E-1,-5.971289873E-1,5.729236603E-1
6.872936251E0,5.802419782E-1,-4.918405414E-1,7.069082260E-1
6.877808490E0,4.337143898E-1,-4.096700847E-1,8.124008179E-1
6.882680730E0,2.093025446E-1,-3.540341258E-1,8.694314957E-1
6.887552969E0,-6.275784969E-2,-3.380555809E-1,9.425115585E-1
6.892425209E0,-3.159068823E-1,-3.556351960E-1,1.010102272E0
6.897297448E0,-5.253492594E-1,-4.139499664E-1,1.044966698E0
6.902169688E0,-6.926199198E-1,-5.079849958E-1,1.009395599E0
6.907041928E0,-7.589409351E-1,-6.007003188E-1,9.763517380E-1
6.911914167E0,-8.046325445E-1,-7.135466337E-1,9.446334839E-1
6.916786407E0,-7.753446102E-1,-7.822696567E-1,8.857240677E-1
6.921658646E0,-7.197000980E-1,-8.069036007E-1,7.887916565E-1
6.926530886E0,-6.385581493E-1,-7.398668528E-1,6.283550262E-1
6.931403126E0,-5.619492531E-1,-6.195350289E-1,4.080600739E-1
6.936275365E0,-4.566398859E-1,-4.563332796E-1,1.984701157E-1
6.941147605E0,-3.588696718E-1,-2.596091926E-1,3.298759460E-2
6.946019844E0,-2.243986130E-1,-6.286615133E-2,-6.811428070E-2
6.950892084E0,-9.875929356E-2,8.713236451E-2,-1.742477417E-1
6.955764323E0,1.402425766E-2,2.573925257E-1,-3.594150543E-1
6.960636563E0,1.143124104E-1,3.676236570E-1,-5.300312042E-1
6.965508803E0,1.301668882E-1,3.639859855E-1,-6.417350769E-1
6.970381042E0,3.670430183E-2,2.405866385E-1,-6.944217682E-1
6.975253282E0,-1.134185791E-1,9.306788445E-3,-6.760530472E-1
6.980125521E0,-2.529842854E-1,-2.689954042E-1,-5.843029022E-1
6.984997761E0,-3.572456837E-1,-5.693979859E-1,-5.029983521E-1
6.989870001E0,-4.176124334E-1,-7.989223003E-1,-4.848489761E-1
6.994742240E0,-4.562160969E-1,-8.670266271E-1,-4.234418869E-1
6.999614480E0,-4.786670208E-1,-6.859403849E-1,-1.981697083E-1
7.004486719E0,-4.504266977E-1,-3.988722563E-1,8.778858185E-2
7.009358959E0,-4.763560295E-1,-1.323171854E-1,2.824506760E-1
7.014231198E0,-5.149949789E-1,8.088946342E-3,3.440494537E-1
7.019103438E0,-5.207358599E-1,5.909502506E-4,3.756246567E-1
7.023975678E0,-4.804401398E-1,-1.579471827E-1,3.676605225E-1
7.028847917E0,-4.376660585E-1,-3.908711076E-1,3.143587112E-1
7.033720157E0,-3.670290709E-1,-6.450805664E-1,2.325592041E-1
7.038592396E0,-2.827713490E-1,-8.578025103E-1,8.167076111E-2
7.043464636E0,-1.874108315E-1,-1.005718231E0,-1.442222595E-1
7.048336876E0,-5.297291279E-2,-1.088103294E0,-4.342212677E-1
7.053209115E0,7.778763771E-2,-1.104132533E0,-7.057495117E-1
7.058081355E0,1.949268579E-1,-9.787455797E-1,-8.250331879E-1
7.062953594E0,2.472280264E-1,-7.914730310E-1,-7.816820145E-1
7.067825834E0,1.901104450E-1,-5.668765306E-1,-7.218580246E-1
7.072698073E0,6.182932854E-2,-3.532620072E-1,-6.827211380E-1
7.077570313E0,-1.146942377E-1,-2.660577297E-1,-5.841808319E-1
7.082442553E0,-2.863502502E-1,-2.246556878E-1,-4.956445694E-1
7.087314792E0,-4.318495989E-1,-2.848413587E-1,-4.445228577E-1
7.092187032E0,-5.311533213E-1,-4.021555185E-1,-4.725370407E-1
7.097059271E0,-6.014657021E-1,-5.395445824E-1,-5.567970276E-1
7.101931511E0,-6.485953331E-1,-6.815191507E-1,-6.123380661E-1
7.106803751E0,-6.319478750E-1,-7.913844585E-1,-6.272315979E-1
7.111675990E0,-6.699873209E-1,-9.279680848E-1,-6.146717072E-1
7.116548230E0,-7.340432405E-1,-1.066365242E0,-5.723028183E-1
7.121420469E0,-7.629615068E-1,-1.145977139E0,-5.252218246E-1
7.126292709E0,-7.850620747E-1,-1.168306947E0,-4.793539047E-1
7.131164948E0,-7.583812475E-1,-1.089312792E0,-4.537992477E-1
7.136037188E0,-6.712846756E-1,-9.739821553E-1,-4.150629044E-1
7.140909428E0,-5.734081268E-1,-8.429760933E-1,-3.990554810E-1
7.145781667E0,-5.359623432E-1,-7.120166421E-1,-4.213428497E-1
7.150653907E0,-5.131664276E-1,-5.961303115E-1,-3.849515915E-1
7.155526146E0,-4.716358185E-1,-5.410677195E-1,-2.947235107E-1
7.160398386E0,-4.319574833E-1,-5.196019411E-1,-1.901769638E-1
7.165270626E0,-4.099367857E-1,-5.595062971E-1,-8.448696136E-2
7.170142865E0,-4.085671902E-1,-5.940176845E-1,7.801055908E-4
7.175015105E0,-4.356607199E-1,-5.685216188E-1,1.122293472E-1
7.179887344E0,-4.437142611E-1,-4.917026460E-1,2.294807434E-1
7.184759584E0,-4.513337612E-1,-3.305591941E-1,3.775901794E-1
7.189631823E0,-4.634267092E-1,-1.666230559E-1,4.740200043E-1
7.194504063E0,-5.414354801E-1,2.843618393E-2,4.986066818E-1
7.199376303E0,-6.954072714E-1,2.211660743E-1,4.503021240E-1
7.204248542E0,-8.088656664E-1,3.338919282E-1,3.854293823E-1
7.209120782E0,-8.755468726E-1,3.462325931E-1,3.590459824E-1
7.213993021E0,-9.228470922E-1,2.656457424E-1,3.388299942E-1
7.218865261E0,-9.124212265E-1,1.260014176E-1,2.996635437E-1
7.223737501E0,-8.489684463E-1,-1.964730024E-2,2.846002579E-1
7.228609740E0,-7.468602061E-1,-1.911734939E-1,2.314195633E-1
7.233481980E0,-6.008880734E-1,-3.510889411E-1,1.330118179E-1
7.238354219E0,-4.228012562E-1,-4.857712090E-1,9.751319885E-3
7.243226459E0,-2.128768563E-1,-5.971770883E-1,-6.904602051E-2
7.248098698E0,-1.214236021E-2,-6.777384281E-1,-1.094760895E-1
7.252970938E0,1.501167417E-1,-7.390500307E-1,-1.021127701E-1
7.257843178E0,3.062375784E-1,-7.354660034E-1,-7.213592529E-2
7.262715417E0,4.299075603E-1,-7.230799794E-1,-8.534908295E-2
7.267587657E0,4.601652622E-1,-7.016932964E-1,-1.154136658E-1
7.272459896E0,4.143874943E-1,-6.701167226E-1,-1.718254089E-1
7.277332136E0,3.360792994E-1,-5.913631916E-1,-2.210359573E-1
7.282204376E0,2.423589230E-1,-5.828144550E-1,-2.187795639E-1
7.287076615E0,1.625171304E-1,-6.230217814E-1,-1.364688873E-1
7.291948855E0,6.862425804E-2,-6.560987830E-1,-1.366519928E-2
7.296821094E0,-1.039004326E-2,-6.452714205E-1,9.581947327E-2
7.301693334E0,-6.932574511E-2,-5.824875236E-1,1.358718872E-1
7.306565573E0,-1.270855665E-1,-5.004224181E-1,1.831398010E-1
7.311437813E0,-1.731555462E-1,-4.186066389E-1,2.364215851E-1
7.316310053E0,-1.944475770E-1,-3.610768914E-1,3.232889175E-1
7.321182292E0,-1.875941157E-1,-3.546190262E-1,3.953065872E-1
7.326054532E0,-1.955325603E-1,-3.847618699E-1,4.276819229E-1
7.330926771E0,-2.419755459E-1,-4.131820202E-1,4.349784851E-1
7.335799011E0,-3.314632773E-1,-4.399399161E-1,4.173994064E-1
7.340671251E0,-4.232665300E-1,-3.961555362E-1,3.882055283E-1
7.345543490E0,-4.913122058E-1,-3.486509919E-1,3.356027603E-1
7.350415730E0,-5.261161327E-1,-3.151077032E-1,2.942209244E-1
7.355287969E0,-4.937679768E-1,-3.057746589E-1,2.556180954E-1
7.360160209E0,-4.485439062E-1,-3.000127673E-1,2.244739532E-1
7.365032448E0,-4.324276447E-1,-2.951209545E-1,1.709995270E-1
7.369904688E0,-4.207299948E-1,-2.777538896E-1,1.309280396E-1
7.374776928E0,-4.397981167E-1,-2.370709181E-1,9.817028046E-2
7.379649167E0,-4.573583603E-1,-1.931270659E-1,4.533958435E-2
7.384521407E0,-4.767968655E-1,-1.279590130E-1,7.707405090E-2
7.389393646E0,-4.779696465E-1,-4.995918274E-2,1.487379074E-1
7.394265886E0,-4.503922462E-1,2.196091413E-2,2.255611420E-1
7.399138126E0,-3.777433634E-1,1.083012819E-1,3.074855804E-1
7.404010365E0,-2.619636059E-1,1.874360740E-1,4.858436584E-1
7.408882605E0,-1.190994978E-1,2.662806511E-1,6.434888840E-1
7.413754844E0,-9.907603264E-3,3.518515825E-1,7.414360046E-1
7.418627084E0,7.350981236E-2,3.902307153E-1,7.565174103E-1
7.423499323E0,1.209443808E-1,3.753596544E-1,7.072887421E-1
7.428371563E0,1.580142975E-1,3.203969002E-1,6.442031860E-1
7.433243803E0,1.614558101E-1,2.072996795E-1,6.196718216E-1
7.438116042E0,1.601524949E-1,4.937329888E-2,6.250858307E-1
7.442988282E0,1.202104688E-1,-1.343683451E-1,6.020917892E-1
7.447860521E0,4.439520836E-2,-2.594753504E-1,5.580511093E-1
7.452732761E0,-6.085276604E-2,-3.598991334E-1,5.192794800E-1
7.457605001E0,-1.523832083E-1,-4.049795866E-1,4.679384232E-1
7.462477240E0,-2.723411322E-1,-4.296618104E-1,4.113197327E-1
7.467349480E0,-3.552773595E-1,-4.055855572E-1,3.352088928E-1
7.472221719E0,-4.326361418E-1,-3.582026362E-1,2.895965576E-1
7.477093959E0,-4.667738676E-1,-2.840655446E-1,2.658834457E-1
7.481966198E0,-4.433966875E-1,-1.819526404E-1,2.744827271E-1
7.486838438E0,-4.065747261E-1,-5.329367518E-2,3.708257675E-1
7.491710678E0,-3.823521137E-1,7.213720679E-2,4.246816635E-1
7.496582917E0,-4.160882235E-1,1.562668085E-1,4.304323196E-1
7.501455157E0,-4.386850595E-1,2.244493961E-1,4.062557220E-1
7.506327396E0,-4.530200958E-1,2.339672446E-1,3.321809769E-1
7.511199636E0,-4.653594494E-1,1.794204712E-1,2.275972366E-1
7.516071876E0,-4.351670742E-1,9.589350224E-2,5.004215240E-2
7.520944115E0,-4.271891117E-1,-8.859038353E-4,-1.665401459E-1
7.525816355E0,-4.578670859E-1,-9.412103891E-2,-3.849020004E-1
7.530688594E0,-5.322214961E-1,-1.503828019E-1,-5.598669052E-1
7.535560834E0,-6.445898414E-1,-1.983268261E-1,-7.083663940E-1
7.540433073E0,-7.429335117E-1,-2.711727619E-1,-8.329343796E-1
7.545305313E0,-8.233948946E-1,-3.388380408E-1,-8.862562180E-1
7.550177553E0,-8.873304725E-1,-3.833543658E-1,-8.356990814E-1
7.555049792E0,-9.160646200E-1,-4.130857289E-1,-6.690950394E-1
7.559922032E0,-9.776914716E-1,-4.433989227E-1,-4.776487350E-1
7.564794271E0,-9.993236065E-1,-4.291409850E-1,-3.019113541E-1
7.569666511E0,-9.714315534E-1,-4.192954600E-1,-1.535873413E-1
7.574538751E0,-9.171274900E-1,-4.411570132E-1,9.087562561E-3
7.579410990E0,-8.395909667E-1,-4.849851131E-1,1.966199875E-1
7.584283230E0,-6.723917723E-1,-6.183151007E-1,4.561891556E-1
7.589155469E0,-4.574975371E-1,-7.835025787E-1,6.802721024E-1
7.594027709E0,-2.682778239E-1,-9.743920565E-1,8.133153915E-1
7.598899948E0,-8.806544542E-2,-1.077148080E0,8.501367569E-1
7.603772188E0,6.156778336E-2,-1.097305417E0,8.259391785E-1
7.608644428E0,1.531934142E-1,-1.084378600E0,7.115221024E-1
7.613516667E0,1.832197905E-1,-1.061348200E0,5.622034073E-1
7.618388907E0,1.590778232E-1,-9.844394326E-1,3.236598969E-1
7.623261146E0,1.008563042E-1,-8.483003378E-1,-1.160049438E-2
7.628133386E0,1.248413324E-2,-6.284801364E-1,-4.105920792E-1
7.633005626E0,-7.495921850E-2,-3.611896932E-1,-8.014535904E-1
7.637877865E0,-1.522937417E-1,-9.198299050E-2,-1.112950325E0
7.642750105E0,-1.725487113E-1,1.448362619E-1,-1.376546860E0
7.647622344E0,-1.334939599E-1,3.613645434E-1,-1.570064545E0
7.652494584E0,-1.108992100E-2,5.588821173E-1,-1.589658737E0
7.657366823E0,1.606922746E-1,7.006193399E-1,-1.435694695E0
7.662239063E0,2.905629873E-1,7.155174017E-1,-1.277039528E0
7.667111303E0,3.370004892E-1,6.223976612E-1,-1.126812935E0
7.671983542E0,2.861686945E-1,4.740094841E-1,-9.608764648E-1
7.676855730E0,2.142355442E-1,2.504321933E-1,-7.724361420E-1
7.681727969E0,1.044528484E-1,-2.331063151E-2,-5.818319321E-1
7.686600261E0,-2.872598171E-2,-2.897636890E-1,-4.297056198E-1
7.691472501E0,-1.348633766E-1,-5.440216064E-1,-3.745698929E-1
7.696344688E0,-2.265893221E-1,-7.499683499E-1,-4.246330261E-1
7.701216928E0,-3.693738580E-1,-9.263129234E-1,-5.510625839E-1
7.706089167E0,-5.173537731E-1,-1.067923784E0,-6.903858185E-1
7.710961407E0,-6.824629307E-1,-1.162433147E0,-8.282613754E-1
7.715833646E0,-8.394026160E-1,-1.228629112E0,-9.431800842E-1
7.720705886E0,-9.450630546E-1,-1.264795303E0,-1.081827164E0
7.725578126E0,-1.033671141E0,-1.279106259E0,-1.155684471E0
7.730450365E0,-1.094359398E0,-1.231634736E0,-1.175618172E0
7.735322605E0,-1.187073708E0,-1.149719834E0,-1.145316124E0
7.740194844E0,-1.280981064E0,-1.013930559E0,-1.098359108E0
7.745067084E0,-1.334638238E0,-8.936657906E-1,-1.020459175E0
7.749939323E0,-1.341284633E0,-7.923018932E-1,-9.535360336E-1
7.754811563E0,-1.365667462E0,-6.405675411E-1,-9.035625458E-1
7.759683803E0,-1.329726934E0,-4.697034657E-1,-9.254817963E-1
7.764556042E0,-1.198342800E0,-3.694657683E-1,-8.052415848E-1
7.769428282E0,-1.036088705E0,-2.908091545E-1,-5.992774963E-1
7.774300521E0,-8.912233114E-1,-2.351951599E-1,-4.093236923E-1
7.779172761E0,-7.864863276E-1,-1.728525162E-1,-2.903432846E-1
7.784045001E0,-7.870397568E-1,-1.486078501E-1,-2.075014114E-1
7.788917240E0,-8.051945567E-1,-1.271254122E-1,-1.033115387E-1
7.793789480E0,-8.495106697E-1,-1.005358100E-1,-7.678985596E-3
7.798661719E0,-8.721451163E-1,-8.964994550E-2,3.400421143E-2
7.803533959E0,-8.774208426E-1,-4.363921285E-2,1.349163055E-2
7.808406198E0,-9.151857495E-1,-1.540419459E-2,-1.410675049E-2
7.813278438E0,-9.392637014E-1,1.751008630E-2,-5.710601807E-2
7.818150678E0,-9.518272281E-1,1.679342985E-2,-1.071062088E-1
7.823022917E0,-9.073181748E-1,8.815437555E-3,-1.533384323E-1
7.827895157E0,-8.820418715E-1,-1.472425461E-2,-2.101469040E-1
7.832767396E0,-8.745946884E-1,-3.345629573E-2,-2.607746124E-1
7.837639636E0,-8.917814493E-1,-1.618742943E-2,-2.944622040E-1
7.842511876E0,-8.944038749E-1,-1.408016682E-2,-3.076715469E-1
7.847384115E0,-8.902215958E-1,2.339872718E-2,-2.753696442E-1
7.852256355E0,-8.259141445E-1,9.041669965E-2,-1.247158051E-1
7.857128594E0,-7.652226090E-1,1.690570712E-1,6.880283356E-2
7.862000834E0,-6.969783306E-1,2.390136123E-1,2.142925262E-1
7.866873073E0,-6.401261091E-1,2.644497156E-1,3.070383072E-1
7.871745313E0,-5.797303319E-1,2.335031331E-1,4.295644760E-1
7.876617553E0,-5.019469857E-1,1.484588087E-1,6.272439957E-1
7.881489792E0,-4.595540166E-1,5.000719428E-2,7.768363953E-1
7.886362032E0,-4.174281359E-1,-3.803491592E-2,8.736400604E-1
7.891234271E0,-3.921162486E-1,-1.263117045E-1,9.117527008E-1
7.896106511E0,-3.833040595E-1,-1.932751387E-1,9.032163620E-1
7.900978751E0,-4.208298922E-1,-2.412100136E-1,8.779764175E-1
7.905850990E0,-4.592364430E-1,-2.509120405E-1,8.348522186E-1
7.910723230E0,-4.798690677E-1,-2.103493214E-1,7.845983505E-1
7.915595469E0,-4.779266119E-1,-1.517522633E-1,7.367849350E-1
7.920467709E0,-4.533439875E-1,-4.741123319E-2,6.794519424E-1
7.925339948E0,-4.071864784E-1,3.699064255E-2,6.162033081E-1
7.930212188E0,-3.619487882E-1,1.195579469E-1,5.374898911E-1
7.935084428E0,-2.952817678E-1,2.052854002E-1,4.624347687E-1
7.939956667E0,-2.170197964E-1,2.415796518E-1,3.695020676E-1
7.944828907E0,-1.200282872E-1,2.764400542E-1,2.419729233E-1
7.949701146E0,1.968619227E-2,2.835021019E-1,1.289176941E-1
7.954573386E0,1.186242402E-1,3.189507723E-1,5.783176422E-2
7.959445626E0,2.171374261E-1,4.125948548E-1,3.462600708E-2
7.964317865E0,2.686048150E-1,5.185909271E-1,-8.896827698E-3
7.969190105E0,3.103863299E-1,6.402268410E-1,-1.037740707E-1
7.974062344E0,3.031286299E-1,7.663126588E-1,-2.152538300E-1
7.978934584E0,2.453990132E-1,8.797724247E-1,-3.433227539E-1
7.983806771E0,1.910243034E-1,9.514827132E-1,-4.628477097E-1
7.988679011E0,1.163170636E-1,9.335767031E-1,-5.989322662E-1
7.993551251E0,-3.134638071E-3,8.953833580E-1,-7.419624329E-1
7.998423490E0,-1.141041219E-1,8.285832405E-1,-8.679943085E-1
8.003295730E0,-2.435147464E-1,7.798451781E-1,-1.026044846E0
8.008167969E0,-3.685567379E-1,7.553700209E-1,-1.147932053E0
8.013040209E0,-4.834040403E-1,7.492125630E-1,-1.239685059E0
8.017912448E0,-5.846717954E-1,7.617534399E-1,-1.313313484E0
8.022784688E0,-6.689541340E-1,8.123335242E-1,-1.386785507E0
8.027656928E0,-7.471188903E-1,8.475548625E-1,-1.442177773E0
8.032529167E0,-7.893742323E-1,9.166954160E-1,-1.497454643E0
8.037401407E0,-8.293212056E-1,9.686064720E-1,-1.526324272E0
8.042273646E0,-8.494277000E-1,1.028508425E0,-1.494162560E0
8.047145886E0,-8.673279285E-1,1.066570044E0,-1.393917084E0
8.052018126E0,-8.525208235E-1,1.065960646E0,-1.250803947E0
8.056890365E0,-8.319020271E-1,1.020783901E0,-1.103167534E0
8.061762605E0,-8.129820824E-1,9.547771215E-1,-9.450492859E-1
8.066634844E0,-8.197669387E-1,8.235081434E-1,-7.979850769E-1
8.071507084E0,-8.342382312E-1,7.357544303E-1,-6.978225708E-1
8.076379323E0,-8.656908274E-1,6.470265388E-1,-6.456813812E-1
8.081251563E0,-8.971291780E-1,5.631323457E-1,-5.948610306E-1
8.086123803E0,-9.056563377E-1,4.744315445E-1,-5.680637360E-1
8.090996042E0,-8.935393095E-1,3.870014548E-1,-5.760126114E-1
8.095868282E0,-8.879683018E-1,2.972609401E-1,-6.294069290E-1
8.100740521E0,-9.053658843E-1,2.268691659E-1,-6.923065186E-1
8.105612761E0,-9.178575873E-1,1.652463675E-1,-7.324075699E-1
8.110485001E0,-8.943095207E-1,1.567690372E-1,-7.736463547E-1
8.115357240E0,-8.107287288E-1,1.310102642E-1,-7.944974899E-1
8.120229480E0,-7.111104727E-1,1.383513510E-1,-8.081216812E-1
8.125101719E0,-6.202664971E-1,1.525965780E-1,-8.073396683E-1
8.129973959E0,-5.561597943E-1,1.903984547E-1,-7.264127731E-1
8.134846198E0,-5.167319775E-1,2.216517478E-1,-6.120824814E-1
8.139718438E0,-4.876074195E-1,2.832205892E-1,-4.918813705E-1
8.144590678E0,-4.925421774E-1,3.412731886E-1,-4.243907928E-1
8.149462917E0,-5.195283890E-1,4.396968484E-1,-3.485689163E-1
8.154335157E0,-5.772796869E-1,5.265146494E-1,-2.763948441E-1
8.159207396E0,-6.540845633E-1,5.869169831E-1,-2.114686966E-1
8.164079636E0,-7.103353143E-1,6.265487075E-1,-1.489915848E-1
8.168951876E0,-7.818942070E-1,6.246634126E-1,-1.140699387E-1
8.173824115E0,-8.377580643E-1,5.966801047E-1,-7.917881012E-2
8.178696355E0,-8.860623837E-1,5.280523896E-1,-8.615016937E-2
8.183568594E0,-9.384903312E-1,4.295306504E-1,-7.753086090E-2
8.188440834E0,-9.903399944E-1,2.784331441E-1,-5.334281921E-2
8.193313073E0,-1.075422525E0,1.023629308E-1,-1.720714569E-2
8.198185313E0,-1.168691635E0,-1.091523767E-1,5.715942383E-2
8.203057553E0,-1.243952751E0,-3.305221200E-1,8.123683929E-2
8.207929792E0,-1.297717094E0,-4.932324886E-1,1.148653030E-1
8.212801980E0,-1.366088152E0,-6.434226036E-1,1.735582352E-1
8.217674271E0,-1.475472927E0,-7.196214795E-1,2.058696747E-1
8.222546459E0,-1.561048269E0,-7.394066453E-1,2.022752762E-1
8.227418698E0,-1.643338680E0,-6.986941695E-1,1.998653412E-1
8.232290938E0,-1.653659105E0,-6.390058398E-1,1.973972321E-1
8.237163178E0,-1.582644701E0,-5.359831452E-1,1.912670135E-1
8.242035417E0,-1.455418110E0,-4.456571937E-1,1.121349335E-1
8.246907657E0,-1.249128103E0,-3.618872166E-1,-8.814811707E-3
8.251779896E0,-1.034740448E0,-2.500807345E-1,-9.384155273E-2
8.256652136E0,-7.974019647E-1,-1.522103697E-1,-1.478109360E-1
8.261524376E0,-5.256173611E-1,-3.141879290E-2,-1.958827972E-1
8.266396615E0,-2.733365297E-1,4.978308082E-2,-2.811031342E-1
8.271268855E0,-4.399460554E-2,8.873762190E-2,-3.806905746E-1
8.276141094E0,1.472536325E-1,1.211561561E-1,-4.826393127E-1
8.281013334E0,2.508660555E-1,1.168644279E-1,-5.892944336E-1
8.285885573E0,2.867468596E-1,1.092729717E-1,-7.328863144E-1
8.290757813E0,3.108607233E-1,1.041010618E-1,-8.631095886E-1
8.295630053E0,3.229406774E-1,8.086061478E-2,-9.895000458E-1
8.300502292E0,3.203285933E-1,8.490119874E-2,-1.085724831E0
8.305374532E0,2.952924073E-1,7.187274098E-2,-1.143433571E0
8.310246771E0,2.522670031E-1,8.219445497E-2,-1.156667709E0
8.315119011E0,1.596524119E-1,5.711963773E-2,-1.114700317E0
8.319991251E0,3.623893857E-2,6.100482494E-2,-9.602327347E-1
8.324863490E0,-3.741750121E-2,8.295685053E-2,-7.161531448E-1
8.329735730E0,-8.861121535E-2,1.360365450E-1,-4.184732437E-1
8.334607969E0,-7.834425569E-2,2.083421201E-1,-1.629199982E-1
8.339480209E0,-6.396853924E-2,2.915174365E-1,-2.833938599E-2
8.344352448E0,2.393844724E-2,3.676638305E-1,5.835914612E-2
8.349224688E0,1.189564764E-1,4.224638939E-1,1.450357437E-1
8.354096928E0,2.030746043E-1,4.606492817E-1,2.388725281E-1
8.358969167E0,2.471902519E-1,4.299308062E-1,3.219032288E-1
8.363841407E0,2.572781444E-1,3.590573072E-1,4.622917175E-1
8.368713646E0,2.244889736E-1,2.840259075E-1,6.874418259E-1
8.373585886E0,1.948137879E-1,1.990008056E-1,9.457979202E-1
8.378458126E0,1.690889001E-1,1.218504310E-1,1.165567398E0
8.383330365E0,1.125553250E-1,6.816142797E-2,1.353964806E0
8.388202605E0,2.186173201E-2,6.310302019E-2,1.511035919E0
8.393074844E0,-1.006586552E-1,2.066053450E-2,1.611703873E0
8.397947084E0,-2.359204888E-1,5.446374416E-3,1.664401054E0
8.402819323E0,-3.823841214E-1,-3.047195077E-2,1.641708374E0
8.407691563E0,-4.632867575E-1,-1.001575887E-1,1.581993103E0
8.412563803E0,-5.108829141E-1,-1.855309904E-1,1.508020401E0
8.417435990E0,-5.620855689E-1,-2.936069071E-1,1.326562881E0
8.422308282E0,-5.880904794E-1,-3.942665756E-1,1.123834610E0
8.427180469E0,-5.764866471E-1,-4.827670157E-1,8.891363144E-1
8.432052709E0,-5.452800989E-1,-5.478693247E-1,6.308612823E-1
8.436924948E0,-5.124515295E-1,-5.942948461E-1,3.753328323E-1
8.441797188E0,-4.761368632E-1,-6.098554134E-1,1.631526947E-1
8.446669428E0,-4.507147670E-1,-6.182176471E-1,-3.683376312E-2
8.451541667E0,-4.198739529E-1,-5.988603234E-1,-2.007761002E-1
8.456413907E0,-4.176121950E-1,-5.206228495E-1,-2.761592865E-1
8.461286146E0,-4.491037726E-1,-3.954520822E-1,-3.324775696E-1
8.466158386E0,-4.751124382E-1,-1.792509854E-1,-4.307489395E-1
8.471030626E0,-4.696134925E-1,5.598568916E-2,-4.585590363E-1
8.475902865E0,-4.448965788E-1,3.015680909E-1,-5.008945465E-1
8.480775105E0,-4.100674391E-1,5.175453424E-1,-5.995273590E-1
8.485647344E0,-4.041270018E-1,6.402614713E-1,-7.160835266E-1
8.490519584E0,-4.016108513E-1,6.730840206E-1,-7.907218933E-1
8.495391823E0,-3.487800956E-1,6.158934832E-1,-8.366451263E-1
8.500264063E0,-2.748595476E-1,4.839140773E-1,-8.717489243E-1
8.505136303E0,-1.653584838E-1,2.903384864E-1,-8.936395645E-1
8.510008542E0,-5.095529556E-2,1.020602882E-1,-8.987073898E-1
8.514880782E0,4.685968161E-2,-7.478916645E-2,-9.037151337E-1
8.519753021E0,1.316313148E-1,-2.091617435E-1,-8.728008270E-1
8.524625261E0,1.542688012E-1,-3.297046423E-1,-8.119926453E-1
8.529497501E0,1.103247404E-1,-3.979715109E-1,-7.667531967E-1
8.534369740E0,8.707267046E-2,-4.567119479E-1,-6.916494370E-1
8.539241980E0,4.177916050E-2,-4.828835130E-1,-5.329103470E-1
8.544114219E0,-1.954126358E-2,-5.467146039E-1,-3.492374420E-1
8.548986459E0,-1.035767198E-1,-5.799073577E-1,-1.992130280E-1
8.553858698E0,-1.854144931E-1,-6.442720890E-1,-2.185916901E-2
8.558730938E0,-2.342396379E-1,-7.036249042E-1,2.054738998E-1
8.563603178E0,-3.074803948E-1,-7.481663227E-1,3.978290558E-1
8.568475417E0,-3.643612862E-1,-7.825511098E-1,5.432977676E-1
8.573347657E0,-4.097493291E-1,-7.682979703E-1,6.419248581E-1
8.578219896E0,-4.749127030E-1,-7.161679864E-1,7.403812408E-1
8.583092136E0,-5.348587632E-1,-5.508048534E-1,8.446397781E-1
8.587964323E0,-5.741910338E-1,-3.646443486E-1,9.331760406E-1
8.592836563E0,-6.050064564E-1,-1.113320589E-1,1.013190269E0
8.597708803E0,-6.388458610E-1,1.310398281E-1,1.085845947E0
8.602581042E0,-6.582109332E-1,3.728577495E-1,1.134400368E0
8.607453282E0,-6.976720095E-1,5.598155260E-1,1.161302567E0
8.612325521E0,-7.355889082E-1,6.987115145E-1,1.163017273E0
8.617197761E0,-7.576758862E-1,7.702904940E-1,1.162291527E0
8.622070001E0,-7.675077319E-1,7.968303561E-1,1.166317940E0
8.626942240E0,-7.426592112E-1,7.865039706E-1,1.158336639E0
8.631814480E0,-6.474262476E-1,7.629460692E-1,1.125209808E0
8.636686719E0,-5.369837880E-1,6.938238144E-1,1.041855812E0
8.641558959E0,-4.197535515E-1,6.257694960E-1,9.178953171E-1
8.646431198E0,-3.449603915E-1,5.590593219E-1,7.712945938E-1
8.651303438E0,-3.251929283E-1,5.033748150E-1,5.985288620E-1
8.656175678E0,-3.239331245E-1,4.686049819E-1,4.032535553E-1
8.661047917E0,-3.467308283E-1,4.443258345E-1,2.106218338E-1
8.665920157E0,-4.051484466E-1,4.247245789E-1,3.738975525E-2
8.670792396E0,-4.572249651E-1,4.449018240E-1,-1.260356903E-1
8.675664636E0,-4.934135079E-1,5.015588999E-1,-2.677221298E-1
8.680536876E0,-5.599018335E-1,5.778388381E-1,-3.757076263E-1
8.685409115E0,-6.304266453E-1,7.073770165E-1,-4.309148788E-1
8.690281355E0,-6.617688537E-1,8.194657564E-1,-3.795976639E-1
8.695153594E0,-6.516930461E-1,9.258278012E-1,-2.601470947E-1
8.700025834E0,-6.219062209E-1,1.013137937E0,-1.671066284E-1
8.704898073E0,-5.592551231E-1,1.032108545E0,-1.566238403E-1
8.709770313E0,-4.518567324E-1,1.008875489E0,-1.425161362E-1
8.714642553E0,-3.453729153E-1,9.744519591E-1,-4.469585419E-2
8.719514740E0,-1.828513145E-1,9.524163008E-1,1.163845062E-1
8.724387032E0,3.033572435E-2,9.101657867E-1,1.732406616E-1
8.729259271E0,1.723781526E-1,8.906791210E-1,1.841545105E-2
8.734131511E0,1.704699397E-1,9.091830850E-1,-2.294607162E-1
8.739003698E0,4.881960154E-2,9.810095429E-1,-4.602699280E-1
8.743875938E0,-1.851919889E-1,1.090478420E0,-6.835966110E-1
8.748748178E0,-4.234072566E-1,1.226606011E0,-8.707246780E-1
8.753620417E0,-6.308038831E-1,1.328423738E0,-1.033634186E0
8.758492657E0,-7.794635296E-1,1.390248060E0,-1.198635101E0
8.763364896E0,-9.001438022E-1,1.383479357E0,-1.360915184E0
8.768237136E0,-9.940395951E-1,1.310743332E0,-1.489393234E0
8.773109376E0,-1.095183611E0,1.205880642E0,-1.592508316E0
8.777981615E0,-1.208605766E0,1.012861729E0,-1.688243866E0
8.782853855E0,-1.278418303E0,7.954970598E-1,-1.740763664E0
8.787726094E0,-1.346264243E0,5.707278252E-1,-1.757282257E0
8.792598334E0,-1.379005671E0,3.402294219E-1,-1.713963509E0
8.797470573E0,-1.389219284E0,1.832532585E-1,-1.613318443E0
8.802342813E0,-1.352145433E0,4.611748457E-2,-1.502072334E0
8.807215053E0,-1.285825729E0,-4.202562571E-2,-1.432860374E0
8.812087292E0,-1.199927449E0,-9.286043048E-2,-1.362611771E0
8.816959532E0,-1.091140866E0,-1.386677921E-1,-1.263849258E0
8.821831771E0,-9.883733988E-1,-1.993816942E-1,-1.195219040E0
8.826704011E0,-8.568515182E-1,-2.603254020E-1,-1.174623489E0
8.831576251E0,-7.236229181E-1,-3.226141036E-1,-1.133832932E0
8.836448490E0,-5.707359314E-1,-3.393309414E-1,-1.069291115E0
8.841320730E0,-3.970969319E-1,-3.106337786E-1,-9.642925262E-1
8.846192969E0,-2.375696301E-1,-2.462312132E-1,-8.607330322E-1
8.851065209E0,-8.120244741E-2,-1.631294787E-1,-8.195657730E-1
8.855937448E0,7.814121246E-2,-9.278205037E-2,-8.562259674E-1
8.860809688E0,2.037934065E-1,-4.523530602E-2,-8.713464737E-1
8.865681928E0,2.601311207E-1,-1.028022170E-2,-8.685045242E-1
8.870554115E0,2.126135826E-1,5.453801155E-2,-8.441190720E-1
8.875426355E0,8.641111851E-2,1.339848936E-1,-7.443990707E-1
8.880298594E0,-1.099514961E-1,2.155789584E-1,-6.005077362E-1
8.885170834E0,-2.985057235E-1,3.427647948E-1,-4.734516144E-1
8.890043073E0,-4.762784243E-1,4.791961312E-1,-3.631715775E-1
8.894915313E0,-6.359369159E-1,6.375367641E-1,-2.636499405E-1
8.899787553E0,-7.358036041E-1,7.805338502E-1,-1.521663666E-1
8.904659792E0,-7.924669385E-1,8.480533957E-1,-5.022907257E-2
8.909532032E0,-8.013437390E-1,8.079710007E-1,1.945495605E-2
8.914404271E0,-6.883931160E-1,6.774244905E-1,7.605648041E-2
8.919276511E0,-5.600147843E-1,4.699137211E-1,1.279773712E-1
8.924148751E0,-4.452669024E-1,2.542134821E-1,1.847686768E-1
8.929020990E0,-3.088279366E-1,4.515469074E-2,2.691040039E-1
8.933893230E0,-1.801995039E-1,-1.111955941E-1,3.785009384E-1
8.938765469E0,-6.458371878E-2,-1.771861911E-1,5.033235550E-1
8.943637709E0,5.183917284E-2,-1.630129963E-1,5.550260544E-1
8.948509948E0,8.430808783E-2,-1.016841531E-1,5.145559311E-1
8.953382188E0,1.993823051E-2,-3.080928326E-2,4.095001221E-1
8.958254428E0,-1.196129322E-1,8.109918237E-2,3.439273834E-1
8.963126667E0,-3.346292973E-1,1.887106001E-1,3.392715454E-1
8.967998907E0,-5.787292719E-1,2.970054448E-1,3.571605682E-1
8.972871146E0,-8.360921144E-1,4.062335789E-1,3.222417831E-1
8.977743386E0,-1.050981045E0,5.223386288E-1,3.039636612E-1
8.982615626E0,-1.170295358E0,6.438564658E-1,3.083171844E-1
8.987487865E0,-1.231353164E0,7.336057425E-1,2.814722061E-1
8.992360105E0,-1.241429806E0,7.602162957E-1,1.852197647E-1
8.997232344E0,-1.225559473E0,7.352846861E-1,9.858512878E-2
9.002104584E0,-1.177816868E0,6.562969685E-1,9.090518951E-2
9.006976771E0,-1.071013689E0,5.864080787E-1,1.333885193E-1
9.011849011E0,-9.861271381E-1,5.061182976E-1,1.004810333E-1
9.016721251E0,-9.478995800E-1,4.402446151E-1,1.622486115E-2
9.021593490E0,-9.166076779E-1,3.586876392E-1,-6.191253662E-2
9.026465730E0,-9.050766230E-1,2.708687782E-1,-1.554336548E-1
9.031337969E0,-8.853991032E-1,1.909896731E-1,-2.128849030E-1
9.036210209E0,-8.468912840E-1,1.239194274E-1,-1.769371033E-1
9.041082448E0,-7.302097082E-1,5.637294054E-2,-8.358383179E-2
9.045954688E0,-5.787744522E-1,2.824425697E-3,-3.334617615E-2
9.050826928E0,-3.928785026E-1,-9.267395735E-2,-5.608272552E-2
9.055699167E0,-2.383033931E-1,-2.179245055E-1,-8.595943451E-2
9.060571407E0,-7.100531459E-2,-3.104298711E-1,-5.126094818E-2
9.065443646E0,7.212930918E-2,-3.986054063E-1,-1.663589478E-2
9.070315886E0,1.425213516E-1,-4.775084257E-1,1.911830902E-2
9.075188126E0,1.643683910E-1,-5.481290817E-1,9.903240204E-2
9.080060365E0,2.188053727E-1,-5.840428472E-1,2.182502747E-1
9.084932605E0,2.363495827E-1,-5.637050271E-1,3.348712921E-1
9.089804844E0,2.293188870E-1,-5.219107866E-1,3.987007141E-1
9.094677084E0,1.945529282E-1,-4.908498824E-1,4.671974182E-1
9.099549323E0,1.058885455E-1,-4.406183362E-1,5.224275589E-1
9.104421563E0,3.381332755E-2,-4.036501944E-1,6.182107925E-1
9.109293803E0,-1.312583685E-3,-3.563187420E-1,7.198457718E-1
9.114166042E0,-1.746162772E-2,-2.735904157E-1,7.986373901E-1
9.119038282E0,-2.192908525E-2,-1.928384900E-1,8.522338867E-1
9.123910521E0,-6.287693977E-3,-1.263439357E-1,8.771018982E-1
9.128782761E0,-1.870658994E-2,-1.101088524E-1,8.995761871E-1
9.133655001E0,-1.150277257E-2,-6.763494015E-2,8.933572769E-1
9.138527240E0,-4.781273007E-2,-1.112091541E-2,8.907794952E-1
9.143399428E0,-7.268527150E-2,7.008194923E-2,9.289035797E-1
9.148271667E0,-6.734201312E-2,1.890107691E-1,9.718017578E-1
9.153143907E0,-5.968049169E-2,3.418913186E-1,9.776153564E-1
9.158016146E0,-5.594232678E-2,4.436210692E-1,9.535617828E-1
9.162888386E0,-7.339048386E-2,4.833229184E-1,9.319448471E-1
9.167760626E0,-5.862617493E-2,4.800790846E-1,8.756847382E-1
9.172632865E0,-6.569597125E-2,4.794557691E-1,7.656812668E-1
9.177505105E0,-1.384017169E-1,4.478072226E-1,6.558265686E-1
9.182377344E0,-2.393094897E-1,4.639132619E-1,5.365762711E-1
9.187249584E0,-3.579226136E-1,4.765487909E-1,3.971576691E-1
9.192121823E0,-4.578990340E-1,4.617043436E-1,2.388172150E-1
9.196994063E0,-5.344089270E-1,4.208887815E-1,6.037235260E-2
9.201866303E0,-6.000374556E-1,3.805216849E-1,-1.345434189E-1
9.206738542E0,-6.378630400E-1,3.027667105E-1,-2.873411179E-1
9.211610782E0,-6.442356110E-1,2.213807106E-1,-3.861246109E-1
9.216483021E0,-6.467742920E-1,9.122341871E-2,-4.297847748E-1
9.221355261E0,-6.209896803E-1,-2.141493559E-2,-4.208297729E-1
9.226227501E0,-5.678953528E-1,-1.367959380E-1,-4.119253159E-1
9.231099740E0,-5.210357904E-1,-2.222509384E-1,-3.887472153E-1
9.235971928E0,-4.740342200E-1,-2.442347407E-1,-3.572797775E-1
9.240844219E0,-4.173119366E-1,-2.241016328E-1,-3.593940735E-1
9.245716407E0,-3.413800597E-1,-1.654735804E-1,-3.998317719E-1
9.250588646E0,-2.703172565E-1,-1.306285560E-1,-3.972482681E-1
9.255460886E0,-1.727699339E-1,-1.113045216E-1,-3.552675247E-1
9.260333126E0,-6.680068374E-2,-1.160558760E-1,-2.643632889E-1
9.265205365E0,-1.324564219E-3,-1.618313789E-1,-1.783809662E-1
9.270077605E0,5.499571562E-2,-2.273141146E-1,-1.008796692E-1
9.274949844E0,7.940459251E-2,-2.685014606E-1,5.225181580E-3
9.279822084E0,6.388226151E-2,-3.002216220E-1,1.016721725E-1
9.284694323E0,7.541188598E-2,-3.109415472E-1,1.765327454E-1
9.289566563E0,1.044474542E-1,-3.165550232E-1,2.597436905E-1
9.294438803E0,1.232078820E-1,-3.076474071E-1,3.202037811E-1
9.299311042E0,1.636882722E-1,-3.037021160E-1,4.009838104E-1
9.304183282E0,1.850575507E-1,-2.945300937E-1,4.320297241E-1
9.309055521E0,1.645478308E-1,-2.798456848E-1,4.308309555E-1
9.313927761E0,1.381574422E-1,-2.667345405E-1,3.893394470E-1
9.318800001E0,9.392569959E-2,-2.395386696E-1,3.233108521E-1
9.323672240E0,5.126231909E-2,-2.078190595E-1,2.293958664E-1
9.328544480E0,4.338535666E-2,-1.842837930E-1,1.030616760E-1
9.333416719E0,3.217288852E-2,-1.898429692E-1,-9.138107300E-3
9.338288959E0,3.196591139E-2,-2.084197700E-1,-1.025857925E-1
9.343161198E0,3.522649407E-2,-2.465522140E-1,-1.715373993E-1
9.348033438E0,3.819048405E-3,-2.928895652E-1,-1.972274780E-1
9.352905626E0,-2.999907732E-2,-3.138159513E-1,-1.824150085E-1
9.357777865E0,-6.990769506E-2,-2.878651321E-1,-1.001482010E-1
9.362650105E0,-6.480714679E-2,-2.295239419E-1,2.706527710E-3
9.367522344E0,-6.954339147E-2,-1.829670668E-1,8.799839020E-2
9.372394584E0,-1.100796163E-1,-1.399776340E-1,1.535100937E-1
9.377266823E0,-1.242846251E-1,-1.221381426E-1,2.314748764E-1
9.382139063E0,-9.003823996E-2,-1.307574511E-1,3.396062851E-1
9.387011303E0,-5.161279440E-2,-1.623072028E-1,4.396791458E-1
9.391883542E0,-4.522591829E-3,-2.062127590E-1,5.175228119E-1
9.396755782E0,5.732008815E-2,-2.413472235E-1,5.401077271E-1
9.401628021E0,1.009499282E-1,-2.669007182E-1,5.482816696E-1
9.406500261E0,1.197679639E-1,-2.916360199E-1,5.338783264E-1
9.411372501E0,9.840747714E-2,-3.156732619E-1,5.350704193E-1
9.416244740E0,7.253211737E-2,-3.071776330E-1,5.339212418E-1
9.421116980E0,7.470101118E-3,-2.511706352E-1,5.375642776E-1
9.425989219E0,-2.305740118E-2,-1.776660085E-1,5.601949692E-1
9.430861459E0,-5.395367742E-2,-1.129698306E-1,5.790920258E-1
9.435733698E0,-6.150549650E-2,-4.980075359E-2,6.192140579E-1
9.440605938E0,-5.065247416E-2,-9.363293648E-3,6.495113373E-1
9.445478178E0,-4.065334797E-4,-1.725134254E-2,6.237554550E-1
9.450350417E0,5.650225282E-2,-8.355155587E-2,5.898790359E-1
9.455222657E0,1.270044446E-1,-1.695283055E-1,5.265693665E-1
9.460094896E0,2.216524631E-1,-2.640410960E-1,4.542522430E-1
9.464967084E0,2.643455565E-1,-3.702556193E-1,3.729925156E-1
9.469839323E0,2.771807313E-1,-4.295970798E-1,2.650680542E-1
9.474711563E0,2.908140719E-1,-4.826173782E-1,1.758232117E-1
9.479583803E0,2.573682070E-1,-4.854329824E-1,8.850669861E-2
9.484456042E0,2.366763949E-1,-4.562169015E-1,4.702377319E-2
9.489328282E0,2.094886601E-1,-4.213898480E-1,6.404876709E-2
9.494200521E0,1.609261036E-1,-3.941002190E-1,8.210277557E-2
9.499072761E0,1.030784547E-1,-3.541820049E-1,4.657840729E-2
9.503945001E0,6.739157438E-2,-2.840902209E-1,-2.307224274E-2
9.508817240E0,6.206572056E-3,-1.841263771E-1,-9.925556183E-2
9.513689480E0,-5.172637105E-2,-7.028934360E-2,-1.617298126E-1
9.518561719E0,-1.255995780E-1,7.013420761E-2,-2.474079132E-1
9.523433959E0,-1.808728725E-1,1.938461959E-1,-3.833942413E-1
9.528306198E0,-2.328846604E-1,2.828976512E-1,-5.443353653E-1
9.533178438E0,-2.937682271E-1,3.705780506E-1,-6.991577148E-1
9.538050678E0,-3.775319755E-1,4.139283895E-1,-8.550329208E-1
9.542922917E0,-4.554646909E-1,4.655790925E-1,-1.049942970E0
9.547795157E0,-5.592985749E-1,5.098826885E-1,-1.251505852E0
9.552667396E0,-6.504392624E-1,5.490984917E-1,-1.419302940E0
9.557539636E0,-7.230449915E-1,6.176087260E-1,-1.547678947E0
9.562411876E0,-7.573416233E-1,6.272699833E-1,-1.626283646E0
9.567284063E0,-8.169363141E-1,6.272270083E-1,-1.706576347E0
9.572156303E0,-8.420962691E-1,5.807763338E-1,-1.803974152E0
9.577028542E0,-8.792092204E-1,5.085570812E-1,-1.868477821E0
9.581900782E0,-9.174784422E-1,4.310756922E-1,-1.852873802E0
9.586773021E0,-9.232822657E-1,3.320101500E-1,-1.752458572E0
9.591645261E0,-9.048736095E-1,2.526325285E-1,-1.589979172E0
9.596517501E0,-8.448687792E-1,1.753882319E-1,-1.491062164E0
9.601389740E0,-7.492012382E-1,1.341552138E-1,-1.447264671E0
9.606261980E0,-6.597084999E-1,9.575878084E-2,-1.419074059E0
9.611134219E0,-6.192621589E-1,8.439911902E-2,-1.368213654E0
9.616006459E0,-6.023715734E-1,5.739732087E-2,-1.300698280E0
9.620878698E0,-6.544379592E-1,2.220772207E-2,-1.189056396E0
9.625750938E0,-6.508125067E-1,-1.605474949E-2,-1.090731621E0
9.630623178E0,-6.082041860E-1,-5.831611156E-2,-9.578914642E-1
9.635495417E0,-5.075497627E-1,-7.797428966E-2,-8.324251175E-1
9.640367657E0,-3.573049903E-1,-2.237536013E-2,-6.904115677E-1
9.645239896E0,-2.175325453E-1,6.781229377E-2,-5.414323807E-1
9.650112136E0,-1.063732654E-1,1.782032996E-1,-3.687582016E-1
9.654984376E0,-2.493681014E-2,3.169079423E-1,-1.508827209E-1
9.659856563E0,6.617226452E-2,4.644860029E-1,1.420392990E-1
9.664728803E0,1.704500914E-1,5.570722818E-1,4.334096909E-1
9.669601042E0,3.258233666E-1,6.087225676E-1,7.124805450E-1
9.674473282E0,4.843255877E-1,6.260164976E-1,1.000791550E0
9.679345521E0,6.360830069E-1,5.833722353E-1,1.268446922E0
9.684217761E0,7.651966214E-1,5.150915384E-1,1.504703522E0
9.689090001E0,8.727115393E-1,4.026523530E-1,1.733509064E0
9.693962240E0,9.331490993E-1,2.721706629E-1,1.923770905E0
9.698834480E0,9.753134251E-1,1.554715186E-1,2.076732635E0
9.703706719E0,9.863170981E-1,7.762660086E-2,2.148200989E0
9.708578959E0,9.918543100E-1,3.717212379E-2,2.143065453E0
9.713451198E0,9.926128983E-1,9.376177937E-2,2.100881577E0
9.718323438E0,1.034332395E0,1.959794909E-1,2.049196243E0
9.723195678E0,1.102494478E0,2.757673860E-1,2.021490097E0
9.728067917E0,1.169434190E0,3.753503859E-1,2.005774498E0
9.732940157E0,1.229216576E0,4.434876144E-1,1.984099388E0
9.737812396E0,1.259176612E0,4.924157858E-1,1.943324089E0
9.742684636E0,1.266626477E0,5.092042089E-1,1.863150597E0
